stim_onset, stim_duration, trial_type, rt, accuracy, epoch_length,epoch_trial, epoch_number
1.660585403442382812e-02	1.487233161926269531e+00	0.000000000000000000e+00	4.202828407287597656e-01	1.000000000000000000e+00	2.800000000000000000e+01	2.300000000000000000e+01	7.000000000000000000e+00
8.364629983901977539e+00	1.487870931625366211e+00	1.000000000000000000e+00	5.159270763397216797e-01	1.000000000000000000e+00	2.800000000000000000e+01	2.400000000000000000e+01	7.000000000000000000e+00
1.638034701347351074e+01	1.500195026397705078e+00	2.000000000000000000e+00	5.120010375976562500e-01	1.000000000000000000e+00	2.800000000000000000e+01	2.500000000000000000e+01	7.000000000000000000e+00
2.707885003089904785e+01	1.487596035003662109e+00	3.000000000000000000e+00	6.211318969726562500e-01	1.000000000000000000e+00	2.800000000000000000e+01	2.600000000000000000e+01	7.000000000000000000e+00
3.797712397575378418e+01	1.488126993179321289e+00	4.000000000000000000e+00	4.066591262817382812e-01	0.000000000000000000e+00	2.800000000000000000e+01	2.700000000000000000e+01	7.000000000000000000e+00
4.774277591705322266e+01	1.499565124511718750e+00	5.000000000000000000e+00	4.884440898895263672e-01	0.000000000000000000e+00	1.600000000000000000e+01	0.000000000000000000e+00	8.000000000000000000e+00
5.737545800209045410e+01	1.486634969711303711e+00	6.000000000000000000e+00	3.556017875671386719e-01	1.000000000000000000e+00	1.600000000000000000e+01	1.000000000000000000e+00	8.000000000000000000e+00
6.524015903472900391e+01	1.488456010818481445e+00	7.000000000000000000e+00	4.607999324798583984e-01	1.000000000000000000e+00	1.600000000000000000e+01	2.000000000000000000e+00	8.000000000000000000e+00
7.315540695190429688e+01	1.487898111343383789e+00	8.000000000000000000e+00	5.331239700317382812e-01	1.000000000000000000e+00	1.600000000000000000e+01	3.000000000000000000e+00	8.000000000000000000e+00
8.078763985633850098e+01	1.488167047500610352e+00	9.000000000000000000e+00	4.624838829040527344e-01	1.000000000000000000e+00	1.600000000000000000e+01	4.000000000000000000e+00	8.000000000000000000e+00
9.051971602439880371e+01	1.499889850616455078e+00	1.000000000000000000e+01	4.613099098205566406e-01	1.000000000000000000e+00	1.600000000000000000e+01	5.000000000000000000e+00	8.000000000000000000e+00
9.836883807182312012e+01	1.487611770629882812e+00	1.100000000000000000e+01	4.907510280609130859e-01	0.000000000000000000e+00	1.600000000000000000e+01	6.000000000000000000e+00	8.000000000000000000e+00
1.069175219535827637e+02	1.487771987915039062e+00	1.200000000000000000e+01	4.059450626373291016e-01	1.000000000000000000e+00	1.600000000000000000e+01	7.000000000000000000e+00	8.000000000000000000e+00
1.159329900741577148e+02	1.487633943557739258e+00	1.300000000000000000e+01	5.900499820709228516e-01	0.000000000000000000e+00	1.600000000000000000e+01	8.000000000000000000e+00	8.000000000000000000e+00
1.257820169925689697e+02	1.498929023742675781e+00	1.400000000000000000e+01	6.057350635528564453e-01	1.000000000000000000e+00	1.600000000000000000e+01	9.000000000000000000e+00	8.000000000000000000e+00
1.341130268573760986e+02	1.488257169723510742e+00	1.500000000000000000e+01	4.194979667663574219e-01	0.000000000000000000e+00	1.600000000000000000e+01	1.000000000000000000e+01	8.000000000000000000e+00
1.444288258552551270e+02	1.500295162200927734e+00	1.600000000000000000e+01	4.243879318237304688e-01	1.000000000000000000e+00	1.600000000000000000e+01	1.100000000000000000e+01	8.000000000000000000e+00
1.526108579635620117e+02	1.487845897674560547e+00	1.700000000000000000e+01	4.791190624237060547e-01	0.000000000000000000e+00	1.600000000000000000e+01	1.200000000000000000e+01	8.000000000000000000e+00
1.639088640213012695e+02	1.500221967697143555e+00	1.800000000000000000e+01	5.537919998168945312e-01	1.000000000000000000e+00	1.600000000000000000e+01	1.300000000000000000e+01	8.000000000000000000e+00
1.722589139938354492e+02	1.499189853668212891e+00	1.900000000000000000e+01	4.754810333251953125e-01	0.000000000000000000e+00	1.600000000000000000e+01	1.400000000000000000e+01	8.000000000000000000e+00
1.804065518379211426e+02	1.500663042068481445e+00	2.000000000000000000e+01	4.794809818267822266e-01	0.000000000000000000e+00	1.600000000000000000e+01	1.500000000000000000e+01	8.000000000000000000e+00
1.886726858615875244e+02	1.487915992736816406e+00	2.100000000000000000e+01	5.411591529846191406e-01	0.000000000000000000e+00	2.200000000000000000e+01	0.000000000000000000e+00	9.000000000000000000e+00
1.964046618938446045e+02	1.488072156906127930e+00	2.200000000000000000e+01	5.830259323120117188e-01	1.000000000000000000e+00	2.200000000000000000e+01	1.000000000000000000e+00	9.000000000000000000e+00
2.041703379154205322e+02	1.487812995910644531e+00	2.300000000000000000e+01	4.370169639587402344e-01	1.000000000000000000e+00	2.200000000000000000e+01	2.000000000000000000e+00	9.000000000000000000e+00
2.128030660152435303e+02	1.486960887908935547e+00	2.400000000000000000e+01	3.858819007873535156e-01	1.000000000000000000e+00	2.200000000000000000e+01	3.000000000000000000e+00	9.000000000000000000e+00
2.215342319011688232e+02	1.488214015960693359e+00	2.500000000000000000e+01	4.006810188293457031e-01	1.000000000000000000e+00	2.200000000000000000e+01	4.000000000000000000e+00	9.000000000000000000e+00
2.292503180503845215e+02	1.487011909484863281e+00	2.600000000000000000e+01	4.392731189727783203e-01	1.000000000000000000e+00	2.200000000000000000e+01	5.000000000000000000e+00	9.000000000000000000e+00
2.382820889949798584e+02	1.499384880065917969e+00	2.700000000000000000e+01	4.991760253906250000e-01	1.000000000000000000e+00	2.200000000000000000e+01	6.000000000000000000e+00	9.000000000000000000e+00
2.469974200725555420e+02	1.487329959869384766e+00	2.800000000000000000e+01	4.034509658813476562e-01	0.000000000000000000e+00	2.200000000000000000e+01	7.000000000000000000e+00	9.000000000000000000e+00
2.563461730480194092e+02	1.487583875656127930e+00	2.900000000000000000e+01	4.044530391693115234e-01	1.000000000000000000e+00	2.200000000000000000e+01	8.000000000000000000e+00	9.000000000000000000e+00
2.644119200706481934e+02	1.487937927246093750e+00	3.000000000000000000e+01	4.805369377136230469e-01	1.000000000000000000e+00	2.200000000000000000e+01	9.000000000000000000e+00	9.000000000000000000e+00
2.727445600032806396e+02	1.499279022216796875e+00	3.100000000000000000e+01	4.185838699340820312e-01	0.000000000000000000e+00	2.200000000000000000e+01	1.000000000000000000e+01	9.000000000000000000e+00
2.822257149219512939e+02	1.500127077102661133e+00	3.200000000000000000e+01	4.712178707122802734e-01	0.000000000000000000e+00	2.200000000000000000e+01	1.100000000000000000e+01	9.000000000000000000e+00
2.920577838420867920e+02	1.498892068862915039e+00	3.300000000000000000e+01	3.988640308380126953e-01	0.000000000000000000e+00	2.200000000000000000e+01	1.200000000000000000e+01	9.000000000000000000e+00
3.001728010177612305e+02	1.500196933746337891e+00	3.400000000000000000e+01	5.106189250946044922e-01	0.000000000000000000e+00	2.200000000000000000e+01	1.300000000000000000e+01	9.000000000000000000e+00
3.078392219543457031e+02	1.499572038650512695e+00	3.500000000000000000e+01	5.007967948913574219e-01	0.000000000000000000e+00	2.200000000000000000e+01	1.400000000000000000e+01	9.000000000000000000e+00
3.163541128635406494e+02	1.500631093978881836e+00	3.600000000000000000e+01	4.207401275634765625e-01	0.000000000000000000e+00	2.200000000000000000e+01	1.500000000000000000e+01	9.000000000000000000e+00
3.252523629665374756e+02	1.488301038742065430e+00	3.700000000000000000e+01	5.351569652557373047e-01	1.000000000000000000e+00	2.200000000000000000e+01	1.600000000000000000e+01	9.000000000000000000e+00
3.329683208465576172e+02	1.487667083740234375e+00	3.800000000000000000e+01	4.390051364898681641e-01	0.000000000000000000e+00	2.200000000000000000e+01	1.700000000000000000e+01	9.000000000000000000e+00
3.413006100654602051e+02	1.500435829162597656e+00	3.900000000000000000e+01	5.594198703765869141e-01	1.000000000000000000e+00	2.200000000000000000e+01	1.800000000000000000e+01	9.000000000000000000e+00
3.498491959571838379e+02	1.499502897262573242e+00	4.000000000000000000e+01	5.506401062011718750e-01	1.000000000000000000e+00	2.200000000000000000e+01	1.900000000000000000e+01	9.000000000000000000e+00
3.593478770256042480e+02	1.487931013107299805e+00	4.100000000000000000e+01	5.175421237945556641e-01	1.000000000000000000e+00	2.200000000000000000e+01	2.000000000000000000e+01	9.000000000000000000e+00
3.691966710090637207e+02	1.487417936325073242e+00	4.200000000000000000e+01	4.865510463714599609e-01	1.000000000000000000e+00	2.200000000000000000e+01	2.100000000000000000e+01	9.000000000000000000e+00
3.774790370464324951e+02	1.487156867980957031e+00	4.300000000000000000e+01	4.499089717864990234e-01	1.000000000000000000e+00	2.100000000000000000e+01	0.000000000000000000e+00	1.000000000000000000e+01
3.874771440029144287e+02	1.499595880508422852e+00	4.400000000000000000e+01	5.062160491943359375e-01	0.000000000000000000e+00	2.100000000000000000e+01	1.000000000000000000e+00	1.000000000000000000e+01
3.967260439395904541e+02	1.499730110168457031e+00	4.500000000000000000e+01	4.272022247314453125e-01	1.000000000000000000e+00	2.100000000000000000e+01	2.000000000000000000e+00	1.000000000000000000e+01
4.068911039829254150e+02	1.488250970840454102e+00	4.600000000000000000e+01	4.777610301971435547e-01	1.000000000000000000e+00	2.100000000000000000e+01	3.000000000000000000e+00	1.000000000000000000e+01
4.158059768676757812e+02	1.489098072052001953e+00	4.700000000000000000e+01	4.845299720764160156e-01	1.000000000000000000e+00	2.100000000000000000e+01	4.000000000000000000e+00	1.000000000000000000e+01
4.269379789829254150e+02	1.488381862640380859e+00	4.800000000000000000e+01	4.163649082183837891e-01	1.000000000000000000e+00	2.100000000000000000e+01	5.000000000000000000e+00	1.000000000000000000e+01
4.347205178737640381e+02	1.499653100967407227e+00	4.900000000000000000e+01	6.443819999694824219e-01	0.000000000000000000e+00	2.100000000000000000e+01	6.000000000000000000e+00	1.000000000000000000e+01
4.446024580001831055e+02	1.499842882156372070e+00	5.000000000000000000e+01	4.103858470916748047e-01	1.000000000000000000e+00	2.100000000000000000e+01	7.000000000000000000e+00	1.000000000000000000e+01
4.526679689884185791e+02	1.487860918045043945e+00	5.100000000000000000e+01	4.396369457244873047e-01	0.000000000000000000e+00	2.100000000000000000e+01	8.000000000000000000e+00	1.000000000000000000e+01
4.603335778713226318e+02	1.500431060791015625e+00	5.200000000000000000e+01	4.927117824554443359e-01	1.000000000000000000e+00	2.100000000000000000e+01	9.000000000000000000e+00	1.000000000000000000e+01
4.695321328639984131e+02	1.499377012252807617e+00	5.300000000000000000e+01	4.256689548492431641e-01	1.000000000000000000e+00	2.100000000000000000e+01	1.000000000000000000e+01	1.000000000000000000e+01
4.798305280208587646e+02	1.488281011581420898e+00	5.400000000000000000e+01	5.058820247650146484e-01	1.000000000000000000e+00	2.100000000000000000e+01	1.100000000000000000e+01	1.000000000000000000e+01
4.879795229434967041e+02	1.487370967864990234e+00	5.500000000000000000e+01	nan	nan	2.100000000000000000e+01	1.200000000000000000e+01	1.000000000000000000e+01
4.988115310668945312e+02	1.499842882156372070e+00	5.600000000000000000e+01	4.614558219909667969e-01	1.000000000000000000e+00	2.100000000000000000e+01	1.300000000000000000e+01	1.000000000000000000e+01
5.068938698768615723e+02	1.488069057464599609e+00	5.700000000000000000e+01	4.107468128204345703e-01	0.000000000000000000e+00	2.100000000000000000e+01	1.400000000000000000e+01	1.000000000000000000e+01
5.146092579364776611e+02	1.487703084945678711e+00	5.800000000000000000e+01	nan	nan	2.100000000000000000e+01	1.500000000000000000e+01	1.000000000000000000e+01
5.254236400127410889e+02	1.488322973251342773e+00	5.900000000000000000e+01	4.175009727478027344e-01	1.000000000000000000e+00	2.100000000000000000e+01	1.600000000000000000e+01	1.000000000000000000e+01
