reward_code,subj_id,condition,trial,epoch_trial,epoch_number,button_press,LR_solution,LR,reward,p_accuracy,rt,trial_end,iti_length,iti_end,stim_onset,session_n,run_n
6.0,813.0,8510.0,0.0,2.0,15.0,0.5889770984649658,82.0,76.0,2.0,0.0,0.5724940299987793,1.5047070980072017,6.830602832,8.335309930007202,0.016479015350341797,4,3
6.0,813.0,8510.0,1.0,3.0,15.0,8.901767015457153,82.0,76.0,0.0,0.0,0.5361509323120116,9.854084014892576,6.510286276,16.364370290892577,8.365607023239136,4,3
6.0,813.0,8510.0,2.0,4.0,15.0,16.969674110412594,76.0,82.0,0.0,0.0,0.5889580249786377,17.880976915359494,9.176654879,27.057631794359494,16.380712032318115,4,3
6.0,813.0,8510.0,3.0,5.0,15.0,27.609296083450324,76.0,76.0,1.0,1.0,0.529710054397583,28.579770088195797,9.379149067,37.9589191551958,27.07957911491394,4,3
6.0,813.0,8510.0,4.0,6.0,15.0,38.662899017333984,82.0,76.0,0.0,0.0,0.6843299865722656,39.4775869846344,8.249659814999998,47.7272467996344,37.97856402397156,4,3
6.0,813.0,8510.0,5.0,7.0,15.0,48.21760797500609,76.0,82.0,0.0,0.0,0.4746439456939696,49.24382901191712,8.106125763999998,57.34995477591712,47.742954969406135,4,3
6.0,813.0,8510.0,6.0,8.0,15.0,58.04213094711304,82.0,76.0,0.0,0.0,0.6672699451446533,58.863974094390876,6.351721296999999,65.21569539139088,57.374857902526855,4,3
6.0,813.0,8510.0,7.0,9.0,15.0,65.77004313468933,76.0,76.0,2.0,1.0,0.5294370651245116,66.7293860912323,6.394658274,73.1240443652323,65.24060201644897,4,3
6.0,813.0,8510.0,8.0,0.0,16.0,73.64567399024962,76.0,82.0,0.0,0.0,0.5064151287078859,74.63971304893492,6.118962944999999,80.75867599393492,73.13925409317017,4,3
6.0,813.0,8510.0,9.0,1.0,16.0,81.53879904747009,82.0,,0.0,,,82.27662801742554,8.225208136,90.50183615342553,80.78834509849548,4,3
6.0,813.0,8510.0,10.0,2.0,16.0,91.08316802978516,82.0,82.0,3.0,1.0,0.5627739429473876,92.0201289653778,6.317521856,98.33765082137779,90.5203869342804,4,3
6.0,813.0,8510.0,11.0,3.0,16.0,99.00023293495177,82.0,76.0,0.0,0.0,0.6311640739440918,99.85765099525452,7.028919837999999,106.88657083325451,98.36904096603392,4,3
6.0,813.0,8510.0,12.0,4.0,16.0,107.42582893371582,76.0,76.0,2.0,1.0,0.5082709789276123,108.40600299835202,7.501984415,115.90798741335202,106.91755700111388,4,3
6.0,813.0,8510.0,13.0,5.0,16.0,116.54024791717526,76.0,76.0,1.0,1.0,0.6074659824371338,117.42211794853209,8.342266416000001,125.76438436453209,115.93277692794801,4,3
6.0,813.0,8510.0,14.0,6.0,16.0,126.35700011253358,76.0,76.0,3.0,1.0,0.5754740238189697,127.28190612792967,6.807756658,134.08966278592968,125.78151893615721,4,3
6.0,813.0,8510.0,15.0,7.0,16.0,134.5666139125824,76.0,76.0,4.0,1.0,0.4524049758911133,135.6020450592041,8.796708647,144.3987537062041,134.11419892311096,4,3
6.0,813.0,8510.0,16.0,0.0,17.0,145.00056195259094,76.0,76.0,1.0,1.0,0.5704340934753417,145.92886400222775,6.660214379000001,152.58907838122775,144.4301221370697,4,3
6.0,813.0,8510.0,17.0,1.0,17.0,153.30320906639102,76.0,76.0,3.0,1.0,0.6911449432373047,154.09934401512146,9.794354736,163.89369875112146,152.61205911636353,4,3
6.0,813.0,8510.0,18.0,2.0,17.0,164.56091094017026,82.0,76.0,0.0,0.0,0.6514079570770264,165.40985798835752,6.830287768,172.24014575635752,163.9094979763031,4,3
6.0,813.0,8510.0,19.0,3.0,17.0,172.83972597122192,82.0,82.0,2.0,1.0,0.5810399055480957,173.758376121521,6.629621234,180.387997355521,172.25868105888364,4,3
6.0,813.0,8510.0,20.0,4.0,17.0,180.95735502243042,76.0,76.0,1.0,1.0,0.5496358871459961,181.90689611434937,6.737836668999999,188.64473278334935,180.40771102905276,4,3
6.0,813.0,8510.0,21.0,5.0,17.0,189.26619410514832,82.0,82.0,2.0,1.0,0.5931599140167236,190.16158413887024,6.214641238,196.37622537687025,188.67303013801572,4,3
6.0,813.0,8510.0,22.0,6.0,17.0,197.11280012130737,82.0,82.0,3.0,1.0,0.7075910568237304,197.89357113838196,6.253368926,204.14694006438197,196.40520405769345,4,3
6.0,813.0,8510.0,23.0,7.0,17.0,204.73225712776187,82.0,82.0,4.0,1.0,0.5612900257110596,205.6707880496979,7.115323056,212.7861111056979,204.1709630489349,4,3
6.0,813.0,8510.0,24.0,8.0,17.0,213.47132992744446,82.0,82.0,4.0,1.0,0.6684701442718505,214.30343198776242,7.217684582,221.52111656976243,212.80285596847534,4,3
6.0,813.0,8510.0,25.0,9.0,17.0,222.07301092147827,82.0,82.0,3.0,1.0,0.521177053451538,223.05206894874567,6.197338695000001,229.24940764374568,221.55182909965518,4,3
6.0,813.0,8510.0,26.0,10.0,17.0,229.89894795417786,76.0,82.0,0.0,0.0,0.6310279369354248,230.76661896705627,7.521907167,238.28852613405627,229.26791501045227,4,3
6.0,813.0,8510.0,27.0,11.0,17.0,238.8855600357056,76.0,76.0,0.0,1.0,0.569549798965454,239.80441308021545,7.186002987000001,246.99041606721545,238.31600713729853,4,3
6.0,813.0,8510.0,28.0,0.0,18.0,247.72341394424444,76.0,76.0,3.0,1.0,0.7091469764709473,248.5031309127808,7.833443911,256.3365748237808,247.01426410675046,4,3
6.0,813.0,8510.0,29.0,1.0,18.0,257.03600692749023,76.0,82.0,0.0,0.0,0.6725540161132812,257.85170698165894,6.551136357000002,264.40284333865895,256.3634510040283,4,3
6.0,813.0,8510.0,30.0,2.0,18.0,265.0436289310456,82.0,82.0,0.0,1.0,0.6140949726104736,265.92860412597656,6.8253593409999995,272.7539634669766,264.4295279979705,4,3
6.0,813.0,8510.0,31.0,3.0,18.0,273.4535610675812,82.0,76.0,0.0,0.0,0.675849199295044,274.26601696014404,7.966205196,282.232222156144,272.7776961326599,4,3
6.0,813.0,8510.0,32.0,4.0,18.0,282.79013109207153,76.0,76.0,2.0,1.0,0.5303430557250977,283.75944709777826,8.316670306,292.07611740377826,282.2597830295563,4,3
6.0,813.0,8510.0,33.0,5.0,18.0,292.66773605346685,82.0,82.0,2.0,1.0,0.5595519542694092,293.59594893455505,6.5996902660000005,300.19563920055504,292.10817813873285,4,3
6.0,813.0,8510.0,34.0,6.0,18.0,300.9744961261748,82.0,,0.0,,,301.712072134018,6.1421443610000015,307.854216495018,300.22392010688776,4,3
6.0,813.0,8510.0,35.0,7.0,18.0,308.3334379196167,82.0,82.0,4.0,1.0,0.4611830711364745,309.3725919723511,6.996471843999999,316.36906381635106,307.87225008010864,4,3
6.0,813.0,8510.0,36.0,8.0,18.0,316.88101601600647,76.0,82.0,0.0,0.0,0.4930109977722168,317.88816499710083,7.37655801,325.2647230071008,316.38797998428345,4,3
6.0,813.0,8510.0,37.0,9.0,18.0,325.79092097282404,76.0,76.0,3.0,1.0,0.503471851348877,326.7746319770813,6.198782992999998,332.9734149700813,325.28744411468506,4,3
6.0,813.0,8510.0,38.0,10.0,18.0,333.69069790840143,76.0,76.0,3.0,1.0,0.6887991428375244,334.4908530712128,6.8236166030000005,341.31446967421283,333.0018911361695,4,3
6.0,813.0,8510.0,39.0,11.0,18.0,342.02926802635193,76.0,82.0,0.0,0.0,0.6948869228363036,342.8349330425262,7.023105083000001,349.8580381255262,341.33437609672546,4,3
6.0,813.0,8510.0,40.0,12.0,18.0,350.4679391384125,82.0,82.0,2.0,1.0,0.5838680267333984,351.371190071106,7.974849629999999,359.346039701106,349.8840630054474,4,3
6.0,813.0,8510.0,41.0,0.0,19.0,359.9237570762634,76.0,82.0,0.0,0.0,0.5584421157836914,360.865844964981,8.33580511,369.20165007498105,359.3653061389923,4,3
6.0,813.0,8510.0,42.0,1.0,19.0,369.97233009338373,76.0,76.0,2.0,1.0,0.7420151233673093,370.71925806999207,6.763984022000001,377.48324209199205,369.2303199768065,4,3
6.0,813.0,8510.0,43.0,2.0,19.0,378.1229100227356,76.0,76.0,3.0,1.0,0.6098978519439697,379.0011880397797,8.482623584,387.48381162377973,377.51300692558283,4,3
6.0,813.0,8510.0,44.0,3.0,19.0,388.05688595771784,76.0,76.0,3.0,1.0,0.5458478927612305,388.99892306327814,7.718719605,396.71764266827813,387.51103210449213,4,3
6.0,813.0,8510.0,45.0,4.0,19.0,397.3186011314392,82.0,76.0,0.0,0.0,0.5757079124450684,398.23133301734924,8.637534137999998,406.8688671553492,396.7428939342499,4,3
6.0,813.0,8510.0,46.0,5.0,19.0,407.6421570777893,76.0,,0.0,,,408.37980103492737,7.401030339,415.78083137392736,406.89187312126154,4,3
6.0,813.0,8510.0,47.0,6.0,19.0,416.2727489471436,82.0,82.0,2.0,1.0,0.4654660224914551,417.3063280582428,9.623171909,426.9294999672428,415.8072769641876,4,3
6.0,813.0,8510.0,48.0,7.0,19.0,427.67955398559565,82.0,82.0,0.0,1.0,0.724153995513916,428.4440600872039,6.273675208999999,434.7177352962039,426.9553880691528,4,3
6.0,813.0,8510.0,49.0,0.0,20.0,435.2643620967865,82.0,76.0,0.0,0.0,0.5268628597259521,436.225888967514,8.360017595,444.58590656251397,434.73749303817755,4,3
6.0,813.0,8510.0,50.0,1.0,20.0,445.091206073761,76.0,82.0,0.0,0.0,0.4883379936218262,446.1028361320496,6.532901352999999,452.6357374850496,444.6028621196746,4,3
6.0,813.0,8510.0,51.0,2.0,20.0,453.2228329181671,82.0,82.0,2.0,1.0,0.5716230869293213,454.15220212936396,6.161457564,460.31365969336395,452.6512069702149,4,3
6.0,813.0,8510.0,52.0,3.0,20.0,461.0846569538117,82.0,,0.0,,,461.8333189487456,7.6808590479999985,469.5141779967456,460.3342869281769,4,3
6.0,813.0,8510.0,53.0,4.0,20.0,470.0936920642853,82.0,82.0,0.0,1.0,0.4518120288848877,471.14276194572454,8.778043002999999,479.92080494872454,469.6418769359589,4,3
6.0,813.0,8510.0,54.0,5.0,20.0,480.4322490692138,82.0,82.0,2.0,1.0,0.4916179180145263,481.42897605895996,6.6360624810000015,488.06503853995997,479.94062709808344,4,3
6.0,813.0,8510.0,55.0,6.0,20.0,488.6751430034637,76.0,76.0,2.0,1.0,0.585676908493042,489.57801699638367,9.319084644,498.89710164038365,488.08945798873907,4,3
6.0,813.0,8510.0,56.0,0.0,21.0,499.62488007545466,76.0,82.0,0.0,0.0,0.70371413230896,500.409364938736,6.553907212,506.96327215073603,498.9211580753326,4,3
6.0,813.0,8510.0,57.0,1.0,21.0,507.46263098716736,76.0,82.0,0.0,0.0,0.4759948253631592,508.4756190776825,6.206747956999999,514.6823670346824,506.9866330623626,4,3
6.0,813.0,8510.0,58.0,2.0,21.0,515.2215669155121,82.0,82.0,3.0,1.0,0.5191130638122559,516.1908869743347,9.297171513,525.4880584873347,514.7024500370026,4,3
6.0,813.0,8510.0,59.0,3.0,21.0,526.0821609497069,82.0,76.0,0.0,0.0,0.5645828247070312,527.0055940151215,6.645541148,533.6511351631215,525.5175709724425,4,3
