onset	duration	trial_type	rt	accuracy	epoch_length	epoch_trial	epoch_number
1.602411270141601562e-02	1.499965906143188477e+00	0.000000000000000000e+00	3.006451129913330078e-01	1.000000000000000000e+00	6.000000000000000000e+00	2.000000000000000000e+00	1.500000000000000000e+01
8.364563226699829102e+00	1.500607967376708984e+00	1.000000000000000000e+00	5.358731746673583984e-01	0.000000000000000000e+00	6.000000000000000000e+00	3.000000000000000000e+00	1.500000000000000000e+01
1.639696407318115234e+01	1.488708019256591797e+00	2.000000000000000000e+00	5.592961311340332031e-01	1.000000000000000000e+00	6.000000000000000000e+00	4.000000000000000000e+00	1.500000000000000000e+01
2.707907104492187500e+01	1.499175071716308594e+00	3.000000000000000000e+00	5.036678314208984375e-01	0.000000000000000000e+00	6.000000000000000000e+00	5.000000000000000000e+00	1.500000000000000000e+01
3.797694015502929688e+01	1.500802993774414062e+00	4.000000000000000000e+00	5.705850124359130859e-01	1.000000000000000000e+00	7.000000000000000000e+00	0.000000000000000000e+00	1.600000000000000000e+01
4.775942111015319824e+01	1.488243103027343750e+00	5.000000000000000000e+00	5.627069473266601562e-01	0.000000000000000000e+00	7.000000000000000000e+00	1.000000000000000000e+00	1.600000000000000000e+01
5.737415909767150879e+01	1.488456010818481445e+00	6.000000000000000000e+00	5.607850551605224609e-01	0.000000000000000000e+00	7.000000000000000000e+00	2.000000000000000000e+00	1.600000000000000000e+01
6.524069714546203613e+01	1.487006902694702148e+00	7.000000000000000000e+00	6.589970588684082031e-01	1.000000000000000000e+00	7.000000000000000000e+00	3.000000000000000000e+00	1.600000000000000000e+01
7.313872599601745605e+01	1.499924182891845703e+00	8.000000000000000000e+00	6.909730434417724609e-01	1.000000000000000000e+00	7.000000000000000000e+00	4.000000000000000000e+00	1.600000000000000000e+01
8.078792810440063477e+01	1.487805128097534180e+00	9.000000000000000000e+00	5.331850051879882812e-01	0.000000000000000000e+00	7.000000000000000000e+00	5.000000000000000000e+00	1.600000000000000000e+01
9.052007007598876953e+01	1.499827146530151367e+00	1.000000000000000000e+01	6.109008789062500000e-01	1.000000000000000000e+00	7.000000000000000000e+00	6.000000000000000000e+00	1.600000000000000000e+01
9.836927103996276855e+01	1.488407135009765625e+00	1.100000000000000000e+01	5.655159950256347656e-01	0.000000000000000000e+00	4.000000000000000000e+00	0.000000000000000000e+00	1.700000000000000000e+01
1.069173510074615479e+02	1.488206148147583008e+00	1.200000000000000000e+01	5.999889373779296875e-01	1.000000000000000000e+00	4.000000000000000000e+00	1.000000000000000000e+00	1.700000000000000000e+01
1.159323031902313232e+02	1.488272905349731445e+00	1.300000000000000000e+01	5.479080677032470703e-01	0.000000000000000000e+00	4.000000000000000000e+00	2.000000000000000000e+00	1.700000000000000000e+01
1.257816231250762939e+02	1.499623060226440430e+00	1.400000000000000000e+01	5.423729419708251953e-01	1.000000000000000000e+00	4.000000000000000000e+00	3.000000000000000000e+00	1.700000000000000000e+01
1.341136782169342041e+02	1.488099813461303711e+00	1.500000000000000000e+01	6.511950492858886719e-01	0.000000000000000000e+00	1.200000000000000000e+01	0.000000000000000000e+00	1.800000000000000000e+01
1.444286100864410400e+02	1.488003015518188477e+00	1.600000000000000000e+01	6.407678127288818359e-01	0.000000000000000000e+00	1.200000000000000000e+01	1.000000000000000000e+00	1.800000000000000000e+01
1.525947940349578857e+02	1.500102043151855469e+00	1.700000000000000000e+01	5.732810497283935547e-01	0.000000000000000000e+00	1.200000000000000000e+01	2.000000000000000000e+00	1.800000000000000000e+01
1.639094960689544678e+02	1.488260984420776367e+00	1.800000000000000000e+01	6.144201755523681641e-01	0.000000000000000000e+00	1.200000000000000000e+01	3.000000000000000000e+00	1.800000000000000000e+01
1.722588100433349609e+02	1.488131999969482422e+00	1.900000000000000000e+01	5.998308658599853516e-01	0.000000000000000000e+00	1.200000000000000000e+01	4.000000000000000000e+00	1.800000000000000000e+01
1.804076561927795410e+02	1.499176979064941406e+00	2.000000000000000000e+01	6.144878864288330078e-01	1.000000000000000000e+00	1.200000000000000000e+01	5.000000000000000000e+00	1.800000000000000000e+01
1.886726891994476318e+02	1.489116907119750977e+00	2.100000000000000000e+01	5.644547939300537109e-01	1.000000000000000000e+00	1.200000000000000000e+01	6.000000000000000000e+00	1.800000000000000000e+01
1.964049541950225830e+02	1.487710952758789062e+00	2.200000000000000000e+01	6.630558967590332031e-01	1.000000000000000000e+00	1.200000000000000000e+01	7.000000000000000000e+00	1.800000000000000000e+01
2.041704771518707275e+02	1.488107919692993164e+00	2.300000000000000000e+01	5.930140018463134766e-01	1.000000000000000000e+00	1.200000000000000000e+01	8.000000000000000000e+00	1.800000000000000000e+01
2.128026561737060547e+02	1.488806962966918945e+00	2.400000000000000000e+01	6.485919952392578125e-01	1.000000000000000000e+00	1.200000000000000000e+01	9.000000000000000000e+00	1.800000000000000000e+01
2.215348050594329834e+02	1.488229036331176758e+00	2.500000000000000000e+01	6.323878765106201172e-01	1.000000000000000000e+00	1.200000000000000000e+01	1.000000000000000000e+01	1.800000000000000000e+01
2.292502260208129883e+02	1.488032102584838867e+00	2.600000000000000000e+01	6.157910823822021484e-01	1.000000000000000000e+00	1.200000000000000000e+01	1.100000000000000000e+01	1.800000000000000000e+01
2.382820041179656982e+02	1.488607883453369141e+00	2.700000000000000000e+01	7.305669784545898438e-01	0.000000000000000000e+00	1.900000000000000000e+01	0.000000000000000000e+00	1.900000000000000000e+01
2.469812901020050049e+02	1.487644910812377930e+00	2.800000000000000000e+01	6.971929073333740234e-01	1.000000000000000000e+00	1.900000000000000000e+01	1.000000000000000000e+00	1.900000000000000000e+01
2.563289370536804199e+02	1.488448143005371094e+00	2.900000000000000000e+01	6.382129192352294922e-01	0.000000000000000000e+00	1.900000000000000000e+01	2.000000000000000000e+00	1.900000000000000000e+01
2.643952250480651855e+02	1.488733053207397461e+00	3.000000000000000000e+01	6.117029190063476562e-01	1.000000000000000000e+00	1.900000000000000000e+01	3.000000000000000000e+00	1.900000000000000000e+01
2.727277240753173828e+02	1.499740123748779297e+00	3.100000000000000000e+01	5.279951095581054688e-01	1.000000000000000000e+00	1.900000000000000000e+01	4.000000000000000000e+00	1.900000000000000000e+01
2.822095851898193359e+02	1.500016927719116211e+00	3.200000000000000000e+01	5.527570247650146484e-01	1.000000000000000000e+00	1.900000000000000000e+01	5.000000000000000000e+00	1.900000000000000000e+01
2.920575981140136719e+02	1.488358020782470703e+00	3.300000000000000000e+01	6.295118331909179688e-01	1.000000000000000000e+00	1.900000000000000000e+01	6.000000000000000000e+00	1.900000000000000000e+01
3.001737010478973389e+02	1.487676143646240234e+00	3.400000000000000000e+01	nan	nan	1.900000000000000000e+01	7.000000000000000000e+00	1.900000000000000000e+01
3.078220260143280029e+02	1.499893188476562500e+00	3.500000000000000000e+01	5.286018848419189453e-01	1.000000000000000000e+00	1.900000000000000000e+01	8.000000000000000000e+00	1.900000000000000000e+01
3.163382711410522461e+02	1.500093936920166016e+00	3.600000000000000000e+01	5.341620445251464844e-01	1.000000000000000000e+00	1.900000000000000000e+01	9.000000000000000000e+00	1.900000000000000000e+01
3.252373070716857910e+02	1.487456083297729492e+00	3.700000000000000000e+01	6.258111000061035156e-01	0.000000000000000000e+00	1.900000000000000000e+01	1.000000000000000000e+01	1.900000000000000000e+01
3.329521420001983643e+02	1.488234043121337891e+00	3.800000000000000000e+01	5.816459655761718750e-01	1.000000000000000000e+00	1.900000000000000000e+01	1.100000000000000000e+01	1.900000000000000000e+01
3.412844331264495850e+02	1.488519906997680664e+00	3.900000000000000000e+01	6.012570858001708984e-01	0.000000000000000000e+00	1.900000000000000000e+01	1.200000000000000000e+01	1.900000000000000000e+01
3.498168780803680420e+02	1.499877929687500000e+00	4.000000000000000000e+01	5.675411224365234375e-01	0.000000000000000000e+00	1.900000000000000000e+01	1.300000000000000000e+01	1.900000000000000000e+01
3.593147420883178711e+02	1.488361120223999023e+00	4.100000000000000000e+01	5.712709426879882812e-01	1.000000000000000000e+00	1.900000000000000000e+01	1.400000000000000000e+01	1.900000000000000000e+01
3.691639041900634766e+02	1.488327026367187500e+00	4.200000000000000000e+01	5.812780857086181641e-01	1.000000000000000000e+00	1.900000000000000000e+01	1.500000000000000000e+01	1.900000000000000000e+01
3.774460661411285400e+02	1.488571882247924805e+00	4.300000000000000000e+01	5.367281436920166016e-01	1.000000000000000000e+00	1.900000000000000000e+01	1.600000000000000000e+01	1.900000000000000000e+01
3.874443361759185791e+02	1.488737821578979492e+00	4.400000000000000000e+01	5.648829936981201172e-01	1.000000000000000000e+00	1.900000000000000000e+01	1.700000000000000000e+01	1.900000000000000000e+01
3.966772360801696777e+02	1.487227916717529297e+00	4.500000000000000000e+01	5.638461112976074219e-01	0.000000000000000000e+00	1.900000000000000000e+01	1.800000000000000000e+01	1.900000000000000000e+01
4.068251039981842041e+02	1.487961053848266602e+00	4.600000000000000000e+01	5.805928707122802734e-01	1.000000000000000000e+00	8.000000000000000000e+00	0.000000000000000000e+00	2.000000000000000000e+01
4.157412741184234619e+02	1.487235069274902344e+00	4.700000000000000000e+01	5.929369926452636719e-01	1.000000000000000000e+00	8.000000000000000000e+00	1.000000000000000000e+00	2.000000000000000000e+01
4.268724122047424316e+02	1.487632989883422852e+00	4.800000000000000000e+01	5.536959171295166016e-01	1.000000000000000000e+00	8.000000000000000000e+00	2.000000000000000000e+00	2.000000000000000000e+01
4.346546671390533447e+02	1.489091873168945312e+00	4.900000000000000000e+01	6.110658645629882812e-01	0.000000000000000000e+00	8.000000000000000000e+00	3.000000000000000000e+00	2.000000000000000000e+01
4.445193920135498047e+02	1.500828981399536133e+00	5.000000000000000000e+01	6.452078819274902344e-01	1.000000000000000000e+00	8.000000000000000000e+00	4.000000000000000000e+00	2.000000000000000000e+01
4.525683381557464600e+02	1.500021934509277344e+00	5.100000000000000000e+01	4.918749332427978516e-01	0.000000000000000000e+00	8.000000000000000000e+00	5.000000000000000000e+00	2.000000000000000000e+01
4.602510190010070801e+02	1.488440036773681641e+00	5.200000000000000000e+01	5.459949970245361328e-01	1.000000000000000000e+00	8.000000000000000000e+00	6.000000000000000000e+00	2.000000000000000000e+01
4.694494521617889404e+02	1.488702058792114258e+00	5.300000000000000000e+01	6.063609123229980469e-01	1.000000000000000000e+00	8.000000000000000000e+00	7.000000000000000000e+00	2.000000000000000000e+01
4.797315011024475098e+02	1.500514030456542969e+00	5.400000000000000000e+01	5.551850795745849609e-01	1.000000000000000000e+00	8.000000000000000000e+00	0.000000000000000000e+00	2.100000000000000000e+01
4.878971920013427734e+02	1.488134145736694336e+00	5.500000000000000000e+01	5.651218891143798828e-01	0.000000000000000000e+00	8.000000000000000000e+00	1.000000000000000000e+00	2.100000000000000000e+01
4.987284731864929199e+02	1.488433837890625000e+00	5.600000000000000000e+01	5.202569961547851562e-01	1.000000000000000000e+00	8.000000000000000000e+00	2.000000000000000000e+00	2.100000000000000000e+01
5.067941172122955322e+02	1.488529920578002930e+00	5.700000000000000000e+01	5.314569473266601562e-01	0.000000000000000000e+00	8.000000000000000000e+00	3.000000000000000000e+00	2.100000000000000000e+01
5.145100641250610352e+02	1.500093936920166016e+00	5.800000000000000000e+01	5.364689826965332031e-01	1.000000000000000000e+00	8.000000000000000000e+00	4.000000000000000000e+00	2.100000000000000000e+01
5.253256590366363525e+02	1.499291181564331055e+00	5.900000000000000000e+01	5.213820934295654297e-01	1.000000000000000000e+00	8.000000000000000000e+00	5.000000000000000000e+00	2.100000000000000000e+01
