reward_code,subj_id,condition,trial,epoch_trial,epoch_number,button_press,LR_solution,LR,reward,p_accuracy,rt,trial_end,iti_length,iti_end,stim_onset,session_n,run_n
6.0,860.0,8510.0,0.0,0.0,0.0,0.515420913696289,76.0,76.0,2.0,1.0,0.50393009185791,1.506664991378784,4.317940096266722,5.824605087645506,0.011483907699584961,9,1
6.0,860.0,8510.0,1.0,1.0,0.0,6.295153856277465,82.0,82.0,4.0,1.0,0.4554908275604248,7.340342998504639,5.383785754702768,12.724128753207406,5.839650869369507,9,1
6.0,860.0,8510.0,2.0,2.0,0.0,13.166888952255247,82.0,82.0,3.0,1.0,0.4282679557800293,14.238538980484009,7.313012831359122,21.55155181184313,12.738614797592163,9,1
6.0,860.0,8510.0,3.0,3.0,0.0,22.044643878936768,82.0,82.0,2.0,1.0,0.4740149974822998,23.069790840148926,10.79833475169842,33.868125591847345,21.57062602043152,9,1
6.0,860.0,8510.0,4.0,4.0,0.0,34.25024390220642,82.0,82.0,2.0,1.0,0.3672239780426025,35.38306403160095,5.980214187183472,41.36327821878442,33.88300895690918,9,1
6.0,860.0,8510.0,5.0,5.0,0.0,41.80389094352722,82.0,82.0,0.0,1.0,0.4220800399780274,42.87396788597106,4.782628941719695,47.656596827690755,41.381801843643196,9,1
6.0,860.0,8510.0,6.0,6.0,0.0,48.026790857315056,76.0,82.0,4.0,0.0,0.35412597656249994,49.172298908233635,14.737374336122404,63.90967324435604,47.672654867172234,9,1
6.0,860.0,8510.0,7.0,7.0,0.0,64.36234188079834,76.0,82.0,0.0,0.0,0.4339330196380615,65.4282968044281,5.530468282589287,70.95876508701738,63.928402900695794,9,1
6.0,860.0,8510.0,8.0,8.0,0.0,71.46701502799988,76.0,76.0,5.0,1.0,0.4892051219940186,72.46977090835571,4.689837541814565,77.15960845017028,70.97780299186707,9,1
6.0,860.0,8510.0,9.0,9.0,0.0,77.64795088768005,76.0,76.0,1.0,1.0,0.4706020355224609,78.67668986320494,7.933123835039336,86.60981369824428,77.17734384536742,9,1
6.0,860.0,8510.0,10.0,0.0,1.0,87.12139701843262,76.0,82.0,3.0,0.0,0.4958879947662355,88.1257698535919,6.021583699934738,94.14735355352664,86.62550091743469,9,1
6.0,860.0,8510.0,11.0,1.0,1.0,94.67111587524415,82.0,76.0,0.0,0.0,0.5048990249633789,95.66160702705383,6.0084012434612415,101.67000827051507,94.16621184349059,9,1
6.0,860.0,8510.0,12.0,2.0,1.0,102.2019748687744,82.0,76.0,0.0,0.0,0.5119140148162842,103.1818039417267,6.342908519715808,109.5247124614425,101.6900520324707,9,1
6.0,860.0,8510.0,13.0,3.0,1.0,110.10979390144348,76.0,76.0,4.0,1.0,0.5710098743438721,111.03885388374329,5.12361522350843,116.16246910725171,109.53877782821657,9,1
6.0,860.0,8510.0,14.0,4.0,1.0,116.68352389335631,82.0,82.0,3.0,1.0,0.5036230087280273,117.67893195152281,5.3245819523236255,123.00351390384644,116.17989683151245,9,1
6.0,860.0,8510.0,15.0,5.0,1.0,123.62641096115112,82.0,82.0,1.0,1.0,0.6057710647583008,124.5191969871521,8.633049373130286,133.1522463602824,123.02063202857971,9,1
6.0,860.0,8510.0,16.0,6.0,1.0,133.73190784454343,82.0,82.0,0.0,1.0,0.5633208751678466,134.66818284988403,4.22372852212238,138.8919113720064,133.16859984397888,9,1
6.0,860.0,8510.0,17.0,7.0,1.0,139.39692902565002,76.0,76.0,2.0,1.0,0.4883711338043213,140.40493297576904,8.423609964858729,148.82854294062778,138.90855383872986,9,1
6.0,860.0,8510.0,18.0,8.0,1.0,149.31712198257446,82.0,82.0,2.0,1.0,0.4763100147247314,150.33684492111206,5.9577914468403685,156.29463636795242,148.84080696105957,9,1
6.0,860.0,8510.0,19.0,9.0,1.0,156.76808190345764,76.0,76.0,2.0,1.0,0.4616518020629882,157.8021829128265,5.653731264845664,163.45591417767218,156.30642199516294,9,1
6.0,860.0,8510.0,20.0,10.0,1.0,163.93496584892273,82.0,82.0,0.0,1.0,0.4628279209136963,164.96847486495972,7.850222046658971,172.8186969116187,163.47213196754458,9,1
6.0,860.0,8510.0,21.0,0.0,2.0,173.26366686820987,76.0,76.0,2.0,1.0,0.4256939888000488,174.33331489562988,13.313967676498914,187.6472825721288,172.83795285224915,9,1
6.0,860.0,8510.0,22.0,1.0,2.0,188.17610192298886,76.0,82.0,0.0,0.0,0.5150079727172852,189.15949296951294,7.817168215050768,196.9766611845637,187.6610720157623,9,1
6.0,860.0,8510.0,23.0,2.0,2.0,197.51461291313169,82.0,82.0,4.0,1.0,0.5219240188598632,198.49218893051147,4.298769830998992,202.79095876151047,196.99268198013306,9,1
6.0,860.0,8510.0,24.0,3.0,2.0,203.49958181381223,82.0,82.0,3.0,1.0,0.6916899681091309,204.30810379981997,8.536625362403885,212.84472916222387,202.80788683891296,9,1
6.0,860.0,8510.0,25.0,4.0,2.0,213.38946080207825,76.0,76.0,3.0,1.0,0.532228946685791,214.35672998428345,4.387685603107792,218.74441558739125,212.857225894928,9,1
6.0,860.0,8510.0,26.0,5.0,2.0,219.25013494491577,82.0,82.0,2.0,1.0,0.4864170551300049,220.26037883758542,12.205508497683955,232.46588733526937,218.76371002197263,9,1
6.0,860.0,8510.0,27.0,6.0,2.0,233.04378890991205,82.0,82.0,4.0,1.0,0.5648159980773926,233.97870182991028,9.66171333614546,243.64041516605573,232.47896695137024,9,1
6.0,860.0,8510.0,28.0,7.0,2.0,244.19625091552732,82.0,82.0,2.0,1.0,0.5359389781951904,245.16039085388186,4.369144076289229,249.52953493017108,243.66030192375183,9,1
6.0,860.0,8510.0,29.0,8.0,2.0,250.0400378704071,82.0,82.0,0.0,1.0,0.4969758987426758,251.03912281990046,5.162751201838655,256.2018740217391,249.54306197166437,9,1
6.0,860.0,8510.0,30.0,9.0,2.0,256.655809879303,82.0,82.0,0.0,1.0,0.439082145690918,257.7172918319702,9.331713183794895,267.0490050157651,256.2167239189148,9,1
6.0,860.0,8510.0,31.0,10.0,2.0,267.59455490112305,82.0,76.0,0.0,0.0,0.5296049118041991,268.56428599357605,4.6964647500486185,273.26075074362467,267.0649299621582,9,1
6.0,860.0,8510.0,32.0,11.0,2.0,273.79342889785767,76.0,76.0,2.0,1.0,0.5118250846862793,274.78081488609314,4.312274231725001,279.0930891178181,273.28160095214844,9,1
6.0,860.0,8510.0,33.0,12.0,2.0,279.61498284339905,82.0,82.0,3.0,1.0,0.5018908977508545,280.61303901672363,5.3953469268923095,286.00838594361596,279.1130859851837,9,1
6.0,860.0,8510.0,34.0,13.0,2.0,286.5057549476624,76.0,82.0,0.0,0.0,0.4852399826049804,287.51659202575684,5.452183431301262,292.9687754570581,286.0205109119415,9,1
6.0,860.0,8510.0,35.0,0.0,3.0,293.46472096443176,82.0,76.0,0.0,0.0,0.4778449535369873,294.4832398891449,5.05542415969958,299.53866404884445,292.9868688583374,9,1
6.0,860.0,8510.0,36.0,1.0,3.0,300.02245903015137,76.0,82.0,0.0,0.0,0.4705691337585449,301.0484929084777,5.546746140205945,306.59523904868365,299.5518858432769,9,1
6.0,860.0,8510.0,37.0,2.0,3.0,307.09005188941956,76.0,76.0,3.0,1.0,0.4808130264282227,308.10900592803955,8.616346437907476,316.725352365947,306.6092298030853,9,1
6.0,860.0,8510.0,38.0,3.0,3.0,317.2756278514862,82.0,82.0,3.0,1.0,0.5348830223083496,318.24077582359314,8.642176331096259,326.8829521546894,316.7407310009002,9,1
6.0,860.0,8510.0,39.0,4.0,3.0,327.3194389343262,76.0,76.0,4.0,1.0,0.4218158721923828,328.39441895484924,6.712312493350723,335.1067314482,326.89761495590204,9,1
6.0,860.0,8510.0,40.0,5.0,3.0,335.626168012619,76.0,76.0,0.0,1.0,0.5048470497131348,336.62217688560486,5.386740674990094,342.00891756059497,335.1213178634644,9,1
6.0,860.0,8510.0,41.0,6.0,3.0,342.5129268169403,76.0,82.0,0.0,0.0,0.4834141731262207,343.5291810035705,4.07117764817416,347.60035865174467,342.02951002120966,9,1
6.0,860.0,8510.0,42.0,7.0,3.0,348.0988528728485,82.0,82.0,0.0,1.0,0.478571891784668,349.1190359592438,4.79935269330872,353.9183886525525,347.62027502059937,9,1
6.0,860.0,8510.0,43.0,8.0,3.0,354.5205619335174,82.0,76.0,0.0,0.0,0.5851650238037108,355.4353919029236,4.8090039474041735,360.24439585032775,353.9353919029236,9,1
6.0,860.0,8510.0,44.0,9.0,3.0,360.7572538852692,76.0,76.0,3.0,1.0,0.4978179931640625,361.7556369304657,6.818667093848904,368.5743040243146,360.2594330310821,9,1
6.0,860.0,8510.0,45.0,10.0,3.0,369.11486792564386,82.0,82.0,2.0,1.0,0.5232129096984864,370.0881178379059,7.719237488823987,377.80735532672986,368.5916509628296,9,1
6.0,860.0,8510.0,46.0,11.0,3.0,378.34477281570435,76.0,76.0,4.0,1.0,0.5212080478668212,379.32011389732355,4.449872060011817,383.7699859573354,377.82355690002436,9,1
6.0,860.0,8510.0,47.0,12.0,3.0,384.21959686279297,82.0,82.0,2.0,1.0,0.4303140640258789,385.286456823349,4.726202642786476,390.01265946613546,383.7892789840697,9,1
6.0,860.0,8510.0,48.0,13.0,3.0,390.55438780784607,82.0,82.0,3.0,1.0,0.5239329338073729,391.5297758579254,10.533551442133387,402.0633273000588,390.03044581413275,9,1
6.0,860.0,8510.0,49.0,14.0,3.0,402.63698387145996,82.0,82.0,2.0,1.0,0.5590448379516602,403.5783920288086,7.974162127425274,411.5525541562339,402.07793092727667,9,1
6.0,860.0,8510.0,50.0,0.0,4.0,412.0215628147124,76.0,76.0,3.0,1.0,0.4533879756927489,413.06552886962885,11.20553698733505,424.2710658569639,411.5681698322296,9,1
6.0,860.0,8510.0,51.0,1.0,4.0,424.87709879875183,82.0,76.0,0.0,0.0,0.5938081741333007,425.78038382530207,6.788214939415964,432.56859876471805,424.28328084945673,9,1
6.0,860.0,8510.0,52.0,2.0,4.0,433.0680108070374,76.0,76.0,3.0,1.0,0.4859488010406494,434.07898592948914,8.329874280214312,442.40886020970345,432.5820529460906,9,1
6.0,860.0,8510.0,53.0,3.0,4.0,442.9424350261688,82.0,82.0,3.0,1.0,0.5194840431213379,443.92182302474976,5.752570542493165,449.67439356724293,442.4229469299317,9,1
6.0,860.0,8510.0,54.0,4.0,4.0,450.11741495132446,82.0,82.0,3.0,1.0,0.4291250705718994,451.18792080879206,14.349517985824647,465.5374387946167,449.6882858276367,9,1
6.0,860.0,8510.0,55.0,5.0,4.0,466.05272293090815,76.0,76.0,2.0,1.0,0.5001099109649658,467.05170989036554,5.571619579678079,472.62332947004364,465.5526080131531,9,1
6.0,860.0,8510.0,56.0,0.0,5.0,473.0885508060455,76.0,82.0,3.0,0.0,0.44496607780456543,474.1405019760132,9.40751572173367,483.54801769774684,472.6435799598693,9,1
6.0,860.0,8510.0,57.0,1.0,5.0,484.02515196800226,82.0,76.0,1.0,0.0,0.4588580131530762,485.06593394279486,5.839360409066347,490.9052943518612,483.56628584861755,9,1
6.0,860.0,8510.0,58.0,2.0,5.0,491.38903403282166,76.0,82.0,0.0,0.0,0.4652249813079834,492.4203939437866,6.9769362520531235,499.39733019583974,490.92380499839777,9,1
6.0,860.0,8510.0,59.0,3.0,5.0,499.81164884567266,82.0,82.0,3.0,1.0,0.3979520797729492,500.91303801536566,6.223174954722828,507.1362129700885,499.4136929512024,9,1
