reward_code,subj_id,condition,trial,epoch_trial,epoch_number,button_press,LR_solution,LR,reward,p_accuracy,rt,trial_end,iti_length,iti_end,stim_onset,session_n,run_n
7.0,860.0,8520.0,0.0,0.0,0.0,0.4178988933563232,82.0,82.0,2.0,1.0,0.4019260406494141,1.5078048706054685,8.792468186871476,10.300273057476945,0.015965938568115234,10,1
7.0,860.0,8520.0,1.0,1.0,0.0,10.845854997634888,82.0,82.0,1.0,1.0,0.5319459438323975,11.813715934753418,6.631707628633282,18.4454235633867,10.313901901245117,10,1
7.0,860.0,8520.0,2.0,2.0,0.0,18.91930389404297,76.0,76.0,2.0,1.0,0.4564149379730225,19.954730987548828,4.822413310717161,24.777144298265988,18.462880849838257,10,1
7.0,860.0,8520.0,3.0,3.0,0.0,25.371212005615238,82.0,82.0,0.0,1.0,0.5757150650024415,26.286500930786133,4.723996433808169,31.0104973645943,24.79549193382263,10,1
7.0,860.0,8520.0,4.0,4.0,0.0,31.538100957870483,76.0,76.0,3.0,1.0,0.5099859237670898,32.51888990402222,7.357746698301637,39.876636602323856,31.028106927871704,10,1
7.0,860.0,8520.0,5.0,5.0,0.0,40.32877802848816,82.0,82.0,3.0,1.0,0.436049222946167,41.393275022506714,6.9885383307156195,48.381813353222334,39.8927218914032,10,1
7.0,860.0,8520.0,6.0,6.0,0.0,48.85539889335632,82.0,82.0,0.0,1.0,0.4553608894348145,49.89989304542542,6.549520796812184,56.449413842237604,48.40003204345704,10,1
7.0,860.0,8520.0,7.0,7.0,0.0,56.960595846176155,76.0,76.0,1.0,1.0,0.4945151805877686,57.96467995643616,14.659626741947005,72.62430669838317,56.46607494354247,10,1
7.0,860.0,8520.0,8.0,8.0,0.0,73.07465386390686,82.0,82.0,1.0,1.0,0.4368190765380859,74.1382110118866,5.796010813584728,79.93422182547133,72.63782906532286,10,1
7.0,860.0,8520.0,9.0,9.0,0.0,80.43361401557921,76.0,76.0,4.0,1.0,0.4795811176300049,81.44534587860107,5.296742942468775,86.74208882106984,79.95402598381042,10,1
7.0,860.0,8520.0,10.0,10.0,0.0,87.22840595245361,76.0,76.0,3.0,1.0,0.4666490554809569,88.26080393791199,12.844662192748167,101.10546613066015,86.76175189018251,10,1
7.0,860.0,8520.0,11.0,11.0,0.0,101.6146650314331,76.0,76.0,0.0,1.0,0.4966840744018554,102.61759686470032,7.885717053434355,110.50331391813467,101.11797285079955,10,1
7.0,860.0,8520.0,12.0,12.0,0.0,111.13448095321657,82.0,76.0,0.0,0.0,0.6175458431243896,112.01647901535034,5.116206457872723,117.13268547322306,110.51692986488344,10,1
7.0,860.0,8520.0,13.0,13.0,0.0,117.71015691757202,76.0,76.0,0.0,1.0,0.5611279010772704,118.64757990837097,4.221015546045584,122.86859545441655,117.1490240097046,10,1
7.0,860.0,8520.0,14.0,14.0,0.0,123.5281879901886,82.0,76.0,0.0,0.0,0.6396760940551758,124.38464784622192,4.999227625352573,129.3838754715745,122.88850998878479,10,1
7.0,860.0,8520.0,15.0,0.0,1.0,129.96183586120605,82.0,76.0,3.0,0.0,0.5650591850280762,130.89677500724792,10.864759394378662,141.7615344016266,129.39677095413208,10,1
7.0,860.0,8520.0,16.0,1.0,1.0,142.34145498275757,76.0,82.0,0.0,0.0,0.562994956970215,143.27817702293396,7.245030661461754,150.52320768439571,141.7784559726715,10,1
7.0,860.0,8520.0,17.0,2.0,1.0,151.11535692214963,82.0,82.0,2.0,1.0,0.5800390243530273,152.0351150035858,4.565177881119008,156.6002928847048,150.53531289100647,10,1
7.0,860.0,8520.0,18.0,3.0,1.0,157.06502699851987,76.0,76.0,0.0,1.0,0.4474649429321289,158.11696004867554,9.019142500412377,167.13610254908792,156.6175549030304,10,1
7.0,860.0,8520.0,19.0,4.0,1.0,167.64975690841675,76.0,76.0,5.0,1.0,0.4997730255126953,168.64930987358093,4.494964270928682,173.1442741445096,167.14997792243955,10,1
7.0,860.0,8520.0,20.0,5.0,1.0,173.78955483436582,82.0,82.0,3.0,1.0,0.62491512298584,174.66070699691772,5.501543205804532,180.16225020272225,173.16463088989255,10,1
7.0,860.0,8520.0,21.0,6.0,1.0,180.68031001091006,76.0,76.0,3.0,1.0,0.4995260238647461,181.68017601966852,6.942892263427201,188.62306828309573,180.18077206611636,10,1
7.0,860.0,8520.0,22.0,7.0,1.0,189.13303995132446,76.0,76.0,4.0,1.0,0.4954679012298584,190.1376450061798,4.3723745294535314,194.51001953563335,188.63756299018854,10,1
7.0,860.0,8520.0,23.0,8.0,1.0,194.9991819858551,76.0,76.0,1.0,1.0,0.4705011844635009,196.0288698673248,12.199614244972102,208.2284841122969,194.52866196632385,10,1
7.0,860.0,8520.0,24.0,9.0,1.0,208.7701950073242,76.0,82.0,0.0,0.0,0.5272250175476074,209.73876500129694,4.184014038478272,213.9227790397752,208.2429599761963,10,1
7.0,860.0,8520.0,25.0,10.0,1.0,214.39117503166202,76.0,76.0,3.0,1.0,0.4492380619049072,215.43792605400085,10.145019766097853,225.5829458200987,213.94193291664126,10,1
7.0,860.0,8520.0,26.0,11.0,1.0,226.31894683837888,82.0,82.0,3.0,1.0,0.720404863357544,227.09899091720578,10.669945105055312,237.7689360222611,225.5985369682312,10,1
7.0,860.0,8520.0,27.0,12.0,1.0,238.28345584869382,76.0,76.0,1.0,1.0,0.4947378635406495,239.2848038673401,5.989362926078536,245.27416679341863,237.78871297836304,10,1
7.0,860.0,8520.0,28.0,13.0,1.0,245.80322790145874,82.0,82.0,4.0,1.0,0.5156970024108887,246.78319692611691,4.348595879584964,251.13179280570188,245.2875280380249,10,1
7.0,860.0,8520.0,29.0,14.0,1.0,251.67482805252075,76.0,76.0,2.0,1.0,0.5299592018127443,252.64486384391782,6.242354087281785,258.8872179311996,251.1448578834534,10,1
7.0,860.0,8520.0,30.0,15.0,1.0,259.3758330345154,82.0,82.0,2.0,1.0,0.4731121063232422,260.39849185943604,6.4335988599876925,266.8320907194237,258.90271401405334,10,1
7.0,860.0,8520.0,31.0,16.0,1.0,267.4394299983978,82.0,82.0,0.0,1.0,0.587820053100586,268.35032296180725,4.03812210404601,272.38844506585326,266.85160183906555,10,1
7.0,860.0,8520.0,32.0,0.0,2.0,273.0783748626709,82.0,76.0,0.0,0.0,0.6774139404296876,273.89620590209955,4.071700999607101,277.96790690170667,272.40095591545105,10,1
7.0,860.0,8520.0,33.0,1.0,2.0,278.6460108757019,82.0,82.0,4.0,1.0,0.6636579036712646,279.4827718734741,7.219707606809824,286.70247948028396,277.9823489189148,10,1
7.0,860.0,8520.0,34.0,2.0,2.0,287.2329339981079,76.0,76.0,0.0,1.0,0.5182089805603027,288.2146940231323,4.426590670812366,292.64128469394467,286.7147159576416,10,1
7.0,860.0,8520.0,35.0,3.0,2.0,293.1426889896393,82.0,82.0,3.0,1.0,0.4867699146270752,294.1555860042572,4.450518118835347,298.60610412309256,292.6559150218964,10,1
7.0,860.0,8520.0,36.0,4.0,2.0,299.1812880039215,76.0,76.0,4.0,1.0,0.5597200393676758,300.1210248470307,5.650748726226001,305.7717735732567,298.62156701087946,10,1
7.0,860.0,8520.0,37.0,5.0,2.0,306.33120989799494,82.0,76.0,0.0,0.0,0.5436680316925049,307.28673696517944,7.688667713697091,314.97540467887654,305.787535905838,10,1
7.0,860.0,8520.0,38.0,6.0,2.0,315.5210030078888,76.0,76.0,4.0,1.0,0.5268380641937256,316.4941639900207,5.00515161472466,321.49931560474533,314.9941599369049,10,1
7.0,860.0,8520.0,39.0,7.0,2.0,322.1006569862365,76.0,76.0,3.0,1.0,0.5825989246368408,323.0179920196532,5.413152176206997,328.4311441958602,321.51805090904236,10,1
7.0,860.0,8520.0,40.0,8.0,2.0,329.00549292564386,76.0,76.0,1.0,1.0,0.5551829338073729,329.95006394386286,6.033938138950511,335.9840020828134,328.450306892395,10,1
7.0,860.0,8520.0,41.0,9.0,2.0,336.5684099197388,82.0,82.0,3.0,1.0,0.5692498683929443,337.4993000030517,7.004965446310737,344.50426544936244,335.99910593032837,10,1
7.0,860.0,8520.0,42.0,10.0,2.0,345.02184796333313,82.0,82.0,5.0,1.0,0.4983170032501221,346.018828868866,4.839307996447101,350.8581368653131,344.52352499961853,10,1
7.0,860.0,8520.0,43.0,11.0,2.0,351.43484902381897,76.0,76.0,2.0,1.0,0.562946081161499,352.3681290149689,10.835061936754887,363.20319095172374,350.8718948364257,10,1
7.0,860.0,8520.0,44.0,12.0,2.0,363.6904239654541,82.0,82.0,0.0,1.0,0.4701230525970459,364.71728801727295,5.134819452905212,369.85210747017817,363.2202959060669,10,1
7.0,860.0,8520.0,45.0,13.0,2.0,370.39408397674555,82.0,76.0,2.0,0.0,0.5253839492797852,371.3651659488678,8.170352102210499,379.53551805107827,369.86869502067566,10,1
7.0,860.0,8520.0,46.0,14.0,2.0,379.98477005958557,76.0,82.0,0.0,0.0,0.4335980415344238,381.0516369342804,6.798715944700676,387.8503528789811,379.55116391181946,10,1
7.0,860.0,8520.0,47.0,15.0,2.0,388.4026699066162,76.0,76.0,1.0,1.0,0.5366840362548828,389.3629429340362,7.414980263890111,396.7779231979263,387.8659789562225,10,1
7.0,860.0,8520.0,48.0,16.0,2.0,397.4381680488586,76.0,82.0,0.0,0.0,0.6472721099853516,398.2897028923034,5.094624502634631,403.38432739493805,396.7908849716186,10,1
7.0,860.0,8520.0,49.0,17.0,2.0,403.98695993423456,76.0,76.0,2.0,1.0,0.5894749164581298,404.89466786384577,4.585086020898974,409.47975388474475,403.39748096466064,10,1
7.0,860.0,8520.0,50.0,18.0,2.0,410.0008699893952,76.0,76.0,3.0,1.0,0.5039811134338378,410.9932188987732,6.025339371582684,417.01855827035587,409.49688196182245,10,1
7.0,860.0,8520.0,51.0,0.0,3.0,417.6235258579254,76.0,82.0,0.0,0.0,0.5855629444122314,418.5368399620056,6.083689317285416,424.620529279291,417.0379579067231,10,1
7.0,860.0,8520.0,52.0,1.0,3.0,425.1583490371704,76.0,76.0,2.0,1.0,0.521826982498169,426.1361310482025,6.564148309367251,432.70027935756974,424.6365120410919,10,1
7.0,860.0,8520.0,53.0,2.0,3.0,433.3001780509949,82.0,82.0,1.0,1.0,0.5818400382995604,434.21856188774103,4.682768996627716,438.90133088436875,432.7183349132538,10,1
7.0,860.0,8520.0,54.0,3.0,3.0,439.4197139739991,76.0,76.0,3.0,1.0,0.5016930103302002,440.41721200942993,14.392717347942519,454.8099293573724,438.91801595687866,10,1
7.0,860.0,8520.0,55.0,4.0,3.0,455.38251304626465,82.0,82.0,2.0,1.0,0.5586521625518799,456.3192989826202,6.110379926657934,462.4296789092781,454.82385706901556,10,1
7.0,860.0,8520.0,56.0,5.0,3.0,463.0942089557648,76.0,76.0,0.0,1.0,0.6470239162445068,463.9476299285889,4.33038336888707,468.278013297476,462.4471800327301,10,1
7.0,860.0,8520.0,57.0,6.0,3.0,468.8840248584747,82.0,82.0,1.0,1.0,0.5881891250610353,469.79658198356634,5.605974879250983,475.40255686281733,468.29583191871643,10,1
7.0,860.0,8520.0,58.0,7.0,3.0,476.0776858329773,82.0,82.0,4.0,1.0,0.6568169593811035,476.91744685173046,5.283662524078102,482.2011093758086,475.420891046524,10,1
7.0,860.0,8520.0,59.0,8.0,3.0,482.8173680305481,82.0,82.0,1.0,1.0,0.58884596824646,483.7158038616181,4.2121795580242765,487.9279834196424,482.22855806350714,10,1
