reward_code,subj_id,condition,trial,epoch_trial,epoch_number,button_press,LR_solution,LR,reward,p_accuracy,rt,trial_end,iti_length,iti_end,stim_onset,session_n,run_n
7.0,860.0,8520.0,0.0,18.0,9.0,0.6911947727203369,76.0,82.0,1.0,0.0,0.6753149032592773,1.5066709518432615,6.450015510250207,7.956686462093469,0.01587080955505371,10,4
7.0,860.0,8520.0,1.0,19.0,9.0,8.649815797805786,76.0,82.0,3.0,0.0,0.6772260665893554,9.472735881805422,5.776318870487574,15.249054752292995,7.9725868701934814,10,4
7.0,860.0,8520.0,2.0,20.0,9.0,15.768486976623535,82.0,76.0,0.0,0.0,0.5054521560668945,16.762808799743652,4.085171086804314,20.847979886547968,15.26302695274353,10,4
7.0,860.0,8520.0,3.0,21.0,9.0,21.337540864944454,82.0,82.0,0.0,1.0,0.4751498699188232,22.362164974212646,10.324469567268553,32.6866345414812,20.862384796142575,10,4
7.0,860.0,8520.0,4.0,22.0,9.0,33.07419300079346,82.0,76.0,1.0,0.0,0.37156915664672846,34.2019579410553,4.477493333864096,38.679451274919394,32.702619791030884,10,4
7.0,860.0,8520.0,5.0,23.0,9.0,39.19695782661437,82.0,76.0,3.0,0.0,0.5037751197814941,40.192797899246216,7.551851358987672,47.744649258233885,38.69317388534546,10,4
7.0,860.0,8520.0,6.0,24.0,9.0,48.237942934036255,82.0,76.0,3.0,0.0,0.4792931079864502,49.2586748600006,4.803964484607359,54.06263934460796,47.758639812469475,10,4
7.0,860.0,8520.0,7.0,0.0,10.0,54.57577586174011,76.0,76.0,0.0,1.0,0.4935600757598877,55.574499845504754,7.66335642991474,63.237856275419496,54.08221197128296,10,4
7.0,860.0,8520.0,8.0,1.0,10.0,63.827374935150154,76.0,76.0,0.0,1.0,0.5711588859558105,64.75622177124025,4.54382909201128,69.30005086325153,63.256213903427124,10,4
7.0,860.0,8520.0,9.0,2.0,10.0,69.83003997802734,82.0,82.0,2.0,1.0,0.516334056854248,70.81422185897827,13.341322876787613,84.15554473576589,69.31369996070862,10,4
7.0,860.0,8520.0,10.0,3.0,10.0,84.56970977783205,82.0,76.0,3.0,0.0,0.3995020389556885,85.67057991027832,4.16698573666836,89.83756564694669,84.17020177841185,10,4
7.0,860.0,8520.0,11.0,4.0,10.0,90.31676292419432,82.0,76.0,3.0,0.0,0.4642460346221924,91.35243082046509,6.428145543072383,97.78057636353748,89.85250878334044,10,4
7.0,860.0,8520.0,12.0,5.0,10.0,98.22347784042357,82.0,76.0,3.0,0.0,0.4304769039154053,99.29294991493225,4.0032142284677805,103.29616414340003,97.79299283027648,10,4
7.0,860.0,8520.0,13.0,6.0,10.0,103.66538286209106,82.0,76.0,3.0,0.0,0.356036901473999,104.80923080444337,4.509236529189239,109.31846733363261,103.30934000015257,10,4
7.0,860.0,8520.0,14.0,7.0,10.0,109.80108189582823,76.0,82.0,3.0,0.0,0.4675159454345704,110.83347296714783,5.812093890975732,116.64556685812356,109.33356094360352,10,4
7.0,860.0,8520.0,15.0,8.0,10.0,117.09201693534851,76.0,76.0,0.0,1.0,0.42691993713378906,118.16486287117004,6.812167747955276,124.97703061912532,116.66509294509888,10,4
7.0,860.0,8520.0,16.0,9.0,10.0,125.45881891250609,76.0,82.0,2.0,0.0,0.4695308208465576,126.48914289474489,4.50132107865654,130.99046397340143,124.989284992218,10,4
7.0,860.0,8520.0,17.0,10.0,10.0,131.67354798316956,76.0,82.0,3.0,0.0,0.6677019596099854,132.5045177936554,8.901739541938754,141.40625733559415,131.0058398246765,10,4
7.0,860.0,8520.0,18.0,11.0,10.0,142.00431299209595,82.0,76.0,2.0,0.0,0.5839581489562988,142.91947984695435,6.347773039472548,149.2672528864269,141.42033982276917,10,4
7.0,860.0,8520.0,19.0,12.0,10.0,149.93036484718323,82.0,82.0,0.0,1.0,0.6441559791564941,150.77799797058105,4.166076894479195,154.94407486506026,149.28620481491086,10,4
7.0,860.0,8520.0,20.0,13.0,10.0,155.45798993110657,76.0,82.0,3.0,0.0,0.4979479312896729,156.45899486541748,4.941679289114352,161.40067415453183,154.96002888679504,10,4
7.0,860.0,8520.0,21.0,14.0,10.0,161.94105195999143,82.0,76.0,2.0,0.0,0.5238430500030516,162.91745686531067,5.899108475664841,168.8165653409755,161.4172048568726,10,4
7.0,860.0,8520.0,22.0,15.0,10.0,169.26364994049072,76.0,82.0,1.0,0.0,0.4312191009521484,170.332582950592,4.023006873304164,174.35558982389617,168.83242297172546,10,4
7.0,860.0,8520.0,23.0,16.0,10.0,174.9202377796173,76.0,82.0,2.0,0.0,0.5463149547576904,175.8735809326172,7.520077488667752,183.39365842128495,174.3739149570465,10,4
7.0,860.0,8520.0,24.0,17.0,10.0,183.9821147918701,82.0,82.0,0.0,1.0,0.5674469470977783,184.90644097328183,6.51052375401974,191.41696472730158,183.41466283798215,10,4
7.0,860.0,8520.0,25.0,18.0,10.0,191.9319999217987,82.0,76.0,2.0,0.0,0.5023980140686035,192.92907381057736,9.1420945735594,202.07116838413677,191.42959880828857,10,4
7.0,860.0,8520.0,26.0,19.0,10.0,202.6187999248505,76.0,82.0,0.0,0.0,0.5324161052703859,203.58634996414182,6.840922497133549,210.42727246127538,202.08637881278992,10,4
7.0,860.0,8520.0,27.0,20.0,10.0,210.92131185531616,82.0,76.0,1.0,0.0,0.4779138565063476,211.9439618587494,4.401890290783156,216.34585214953253,210.4433889389038,10,4
7.0,860.0,8520.0,28.0,21.0,10.0,216.80320596694943,82.0,76.0,3.0,0.0,0.44419312477111816,217.85971879959104,4.915143640819196,222.77486244041023,216.35900783538816,10,4
7.0,860.0,8520.0,29.0,22.0,10.0,223.2891359329224,76.0,82.0,3.0,0.0,0.4975731372833251,224.29254078865048,5.258164305716979,229.55070509436746,222.79156279563904,10,4
7.0,860.0,8520.0,30.0,0.0,11.0,230.10302782058716,82.0,82.0,0.0,1.0,0.5363759994506836,231.0657398700714,5.690855074526445,236.75659494459785,229.5666449069977,10,4
7.0,860.0,8520.0,31.0,1.0,11.0,237.33680391311646,76.0,82.0,2.0,0.0,0.5639009475708008,238.2730078697205,4.622010832834442,242.89501870255492,236.77289485931396,10,4
7.0,860.0,8520.0,32.0,2.0,11.0,243.38269877433774,76.0,76.0,0.0,1.0,0.4680600166320801,244.41450285911557,8.985973943381277,253.40047680249685,242.91463589668274,10,4
7.0,860.0,8520.0,33.0,3.0,11.0,253.9324159622192,82.0,76.0,1.0,0.0,0.5198469161987306,254.91249799728394,5.004051993481632,259.9165499907656,253.4125609397888,10,4
7.0,860.0,8520.0,34.0,4.0,11.0,260.4489789009095,82.0,76.0,0.0,0.0,0.5200231075286865,261.4280798435211,5.474914358915144,266.9029942024363,259.92895293235773,10,4
7.0,860.0,8520.0,35.0,5.0,11.0,267.6699028015137,76.0,82.0,0.0,0.0,0.7505989074707031,268.4192488193512,4.886523335178133,273.30577215452934,266.91934084892273,10,4
7.0,860.0,8520.0,36.0,6.0,11.0,273.8457388877869,76.0,82.0,0.0,0.0,0.5192248821258545,274.82645893096924,5.085454071351005,279.91191300232026,273.3265109062195,10,4
7.0,860.0,8520.0,37.0,7.0,11.0,280.604731798172,82.0,76.0,3.0,0.0,0.6792747974395752,281.42499685287476,6.668603715035868,288.09360056791064,279.9254479408264,10,4
7.0,860.0,8520.0,38.0,8.0,11.0,288.78927993774414,76.0,82.0,2.0,0.0,0.6810941696166991,289.60794591903687,5.075843454231196,294.68378937326804,288.1081838607788,10,4
7.0,860.0,8520.0,39.0,9.0,11.0,295.28324484825134,76.0,82.0,2.0,0.0,0.5844948291778564,296.19875192642206,6.31025905552784,302.5090109819499,294.69874382019043,10,4
7.0,860.0,8520.0,40.0,10.0,11.0,303.23203778266907,82.0,76.0,2.0,0.0,0.7102000713348389,304.02182197570806,6.342412462803201,310.3642344385113,302.5218298435211,10,4
7.0,860.0,8520.0,41.0,11.0,11.0,310.8488368988037,82.0,76.0,2.0,0.0,0.4693269729614258,311.8789927959442,5.762531193449983,317.6415239893942,310.37952280044556,10,4
7.0,860.0,8520.0,42.0,12.0,11.0,318.178743839264,82.0,76.0,2.0,0.0,0.5175139904022217,319.16129088401794,7.504999191981379,326.6662900759993,317.6612219810486,10,4
7.0,860.0,8520.0,43.0,13.0,11.0,327.23454689979553,76.0,82.0,4.0,0.0,0.5487689971923828,328.1860008239746,7.00359271167039,335.189593535645,326.68577289581305,10,4
7.0,860.0,8520.0,44.0,14.0,11.0,335.7181890010834,76.0,82.0,0.0,0.0,0.5084729194641113,336.70921778678894,4.323840039998226,341.03305782678717,335.20971298217773,10,4
7.0,860.0,8520.0,45.0,15.0,11.0,341.48107981681824,82.0,76.0,0.0,0.0,0.4300839900970458,342.54992389678955,7.485848888538077,350.03577278532765,341.0509879589081,10,4
7.0,860.0,8520.0,46.0,16.0,11.0,350.5357849597931,76.0,76.0,0.0,1.0,0.4863920211791993,351.54858493804926,13.837778529449224,365.3863634674985,350.04938697814936,10,4
7.0,860.0,8520.0,47.0,17.0,11.0,365.97664880752563,76.0,76.0,0.0,1.0,0.5710761547088623,366.9048509597778,6.244323063999934,373.14917402377773,365.4055678844452,10,4
7.0,860.0,8520.0,48.0,18.0,11.0,373.71403193473816,82.0,82.0,0.0,1.0,0.5519390106201172,374.6618299484253,4.358153350877744,379.019983299303,373.16208887100214,10,4
7.0,860.0,8520.0,49.0,19.0,11.0,379.4882128238678,82.0,76.0,0.0,0.0,0.4518969058990479,380.53610086441034,6.659746093069906,387.1958469574802,379.03630685806274,10,4
7.0,860.0,8520.0,50.0,0.0,12.0,387.7077548503876,76.0,82.0,3.0,0.0,0.4973359107971193,388.71060085296637,4.9490135734280845,393.65961442639446,387.21041297912603,10,4
7.0,860.0,8520.0,51.0,1.0,12.0,394.204640865326,76.0,76.0,0.0,1.0,0.5286788940429689,395.1757819652557,4.026042792997207,399.2018247582529,393.6759569644928,10,4
7.0,860.0,8520.0,52.0,2.0,12.0,399.6013967990875,82.0,82.0,0.0,1.0,0.3838920593261719,400.7172417640686,6.997036235420457,407.71427799948907,399.21749997138977,10,4
7.0,860.0,8520.0,53.0,3.0,12.0,408.207279920578,82.0,76.0,3.0,0.0,0.4747729301452637,409.224170923233,4.835107695225874,414.05927861845885,407.7324998378753,10,4
7.0,860.0,8520.0,54.0,4.0,12.0,414.5441129207611,82.0,76.0,0.0,0.0,0.4708781242370605,415.56935691833496,9.196401823866147,424.7657587422011,414.07322382926947,10,4
7.0,860.0,8520.0,55.0,5.0,12.0,425.24857378005987,82.0,76.0,3.0,0.0,0.4679651260375977,426.2797157764434,5.687608913786438,431.9673246902299,424.7806038856505,10,4
7.0,860.0,8520.0,56.0,6.0,12.0,432.4276609420775,82.0,76.0,2.0,0.0,0.4411520957946777,433.48706579208374,4.9082345123556035,438.39530030443933,431.9864978790283,10,4
7.0,860.0,8520.0,57.0,7.0,12.0,438.99954891204834,76.0,82.0,2.0,0.0,0.5877389907836914,439.91112184524536,9.546042208007254,449.4571640532526,438.4118049144745,10,4
7.0,860.0,8520.0,58.0,8.0,12.0,449.9500598907471,82.0,76.0,3.0,0.0,0.4735288619995117,450.96792984008795,7.2863669218926095,458.2542967619806,449.47652482986445,10,4
7.0,860.0,8520.0,59.0,9.0,12.0,458.6980428695679,76.0,82.0,3.0,0.0,0.4315211772918701,459.76692891120905,4.2505428068657265,464.0174717180748,458.2665197849273,10,4
