stim_onset, stim_duration, trial_type, rt, accuracy, epoch_length,epoch_trial, epoch_number
1.677608489990234375e-02	1.499115943908691406e+00	0.000000000000000000e+00	6.057460308074951172e-01	1.000000000000000000e+00	1.300000000000000000e+01	1.100000000000000000e+01	7.000000000000000000e+00
6.266059160232543945e+00	1.499491930007934570e+00	1.000000000000000000e+00	5.922441482543945312e-01	1.000000000000000000e+00	1.300000000000000000e+01	1.200000000000000000e+01	7.000000000000000000e+00
1.219055914878845215e+01	1.498556852340698242e+00	2.000000000000000000e+00	6.393690109252929688e-01	0.000000000000000000e+00	1.100000000000000000e+01	0.000000000000000000e+00	8.000000000000000000e+00
2.078047895431518555e+01	1.500098228454589844e+00	3.000000000000000000e+00	7.462420463562011719e-01	0.000000000000000000e+00	1.100000000000000000e+01	1.000000000000000000e+00	8.000000000000000000e+00
2.957879900932312012e+01	1.499803066253662109e+00	4.000000000000000000e+00	6.506540775299072266e-01	1.000000000000000000e+00	1.100000000000000000e+01	2.000000000000000000e+00	8.000000000000000000e+00
3.724513912200927734e+01	1.499155044555664062e+00	5.000000000000000000e+00	4.520628452301025391e-01	1.000000000000000000e+00	1.100000000000000000e+01	3.000000000000000000e+00	8.000000000000000000e+00
4.476858997344970703e+01	1.499814987182617188e+00	6.000000000000000000e+00	6.085460186004638672e-01	1.000000000000000000e+00	1.100000000000000000e+01	4.000000000000000000e+00	8.000000000000000000e+00
5.053444099426269531e+01	1.499077081680297852e+00	7.000000000000000000e+00	5.160911083221435547e-01	0.000000000000000000e+00	1.100000000000000000e+01	5.000000000000000000e+00	8.000000000000000000e+00
5.634202814102172852e+01	1.500139951705932617e+00	8.000000000000000000e+00	5.175199508666992188e-01	1.000000000000000000e+00	1.100000000000000000e+01	6.000000000000000000e+00	8.000000000000000000e+00
6.188227605819702148e+01	1.492290973663330078e+00	9.000000000000000000e+00	6.760420799255371094e-01	1.000000000000000000e+00	1.100000000000000000e+01	7.000000000000000000e+00	8.000000000000000000e+00
6.951401114463806152e+01	1.501286983489990234e+00	1.000000000000000000e+01	5.203940868377685547e-01	1.000000000000000000e+00	1.100000000000000000e+01	8.000000000000000000e+00	8.000000000000000000e+00
7.524723696708679199e+01	1.500092983245849609e+00	1.100000000000000000e+01	7.167119979858398438e-01	1.000000000000000000e+00	1.100000000000000000e+01	9.000000000000000000e+00	8.000000000000000000e+00
8.169666004180908203e+01	1.499897956848144531e+00	1.200000000000000000e+01	5.350780487060546875e-01	1.000000000000000000e+00	1.100000000000000000e+01	1.000000000000000000e+01	8.000000000000000000e+00
8.861232399940490723e+01	1.499310970306396484e+00	1.300000000000000000e+01	5.762040615081787109e-01	0.000000000000000000e+00	7.000000000000000000e+00	0.000000000000000000e+00	9.000000000000000000e+00
9.636970901489257812e+01	1.498963117599487305e+00	1.400000000000000000e+01	nan	nan	7.000000000000000000e+00	1.000000000000000000e+00	9.000000000000000000e+00
1.025931301116943359e+02	1.499022960662841797e+00	1.500000000000000000e+01	5.177741050720214844e-01	1.000000000000000000e+00	7.000000000000000000e+00	2.000000000000000000e+00	9.000000000000000000e+00
1.108089451789855957e+02	1.499404907226562500e+00	1.600000000000000000e+01	4.677419662475585938e-01	1.000000000000000000e+00	7.000000000000000000e+00	3.000000000000000000e+00	9.000000000000000000e+00
1.168828911781311035e+02	1.500273942947387695e+00	1.700000000000000000e+01	5.176241397857666016e-01	1.000000000000000000e+00	7.000000000000000000e+00	4.000000000000000000e+00	9.000000000000000000e+00
1.260980570316314697e+02	1.499978065490722656e+00	1.800000000000000000e+01	5.261168479919433594e-01	1.000000000000000000e+00	7.000000000000000000e+00	5.000000000000000000e+00	9.000000000000000000e+00
1.323474380970001221e+02	1.498864889144897461e+00	1.900000000000000000e+01	nan	nan	7.000000000000000000e+00	6.000000000000000000e+00	9.000000000000000000e+00
1.383962700366973877e+02	1.498884916305541992e+00	2.000000000000000000e+01	4.163880348205566406e-01	0.000000000000000000e+00	8.000000000000000000e+00	0.000000000000000000e+00	1.000000000000000000e+01
1.445530350208282471e+02	1.500019073486328125e+00	2.100000000000000000e+01	5.904581546783447266e-01	0.000000000000000000e+00	8.000000000000000000e+00	1.000000000000000000e+00	1.000000000000000000e+01
1.501858601570129395e+02	1.500239849090576172e+00	2.200000000000000000e+01	nan	nan	8.000000000000000000e+00	2.000000000000000000e+00	1.000000000000000000e+01
1.558600320816040039e+02	1.499939918518066406e+00	2.300000000000000000e+01	4.531509876251220703e-01	1.000000000000000000e+00	8.000000000000000000e+00	3.000000000000000000e+00	1.000000000000000000e+01
1.623931579589843750e+02	1.498962163925170898e+00	2.400000000000000000e+01	nan	nan	8.000000000000000000e+00	4.000000000000000000e+00	1.000000000000000000e+01
1.690241901874542236e+02	1.500140905380249023e+00	2.500000000000000000e+01	4.344418048858642578e-01	1.000000000000000000e+00	8.000000000000000000e+00	5.000000000000000000e+00	1.000000000000000000e+01
1.746411299705505371e+02	1.499004125595092773e+00	2.600000000000000000e+01	6.642711162567138672e-01	1.000000000000000000e+00	8.000000000000000000e+00	6.000000000000000000e+00	1.000000000000000000e+01
1.815817110538482666e+02	1.500144004821777344e+00	2.700000000000000000e+01	6.599020957946777344e-01	1.000000000000000000e+00	8.000000000000000000e+00	7.000000000000000000e+00	1.000000000000000000e+01
1.881972091197967529e+02	1.491263866424560547e+00	2.800000000000000000e+01	5.837509632110595703e-01	0.000000000000000000e+00	1.200000000000000000e+01	0.000000000000000000e+00	1.100000000000000000e+01
1.954374310970306396e+02	1.500243902206420898e+00	2.900000000000000000e+01	5.913059711456298828e-01	0.000000000000000000e+00	1.200000000000000000e+01	1.000000000000000000e+00	1.100000000000000000e+01
2.014035670757293701e+02	1.499475002288818359e+00	3.000000000000000000e+01	7.220308780670166016e-01	0.000000000000000000e+00	1.200000000000000000e+01	2.000000000000000000e+00	1.100000000000000000e+01
2.076439220905303955e+02	1.500295877456665039e+00	3.100000000000000000e+01	5.115020275115966797e-01	0.000000000000000000e+00	1.200000000000000000e+01	3.000000000000000000e+00	1.100000000000000000e+01
2.150273230075836182e+02	1.499160051345825195e+00	3.200000000000000000e+01	4.889130592346191406e-01	0.000000000000000000e+00	1.200000000000000000e+01	4.000000000000000000e+00	1.100000000000000000e+01
2.227588970661163330e+02	1.498558998107910156e+00	3.300000000000000000e+01	5.760769844055175781e-01	0.000000000000000000e+00	1.200000000000000000e+01	5.000000000000000000e+00	1.100000000000000000e+01
2.287753360271453857e+02	1.498677968978881836e+00	3.400000000000000000e+01	5.844171047210693359e-01	1.000000000000000000e+00	1.200000000000000000e+01	6.000000000000000000e+00	1.100000000000000000e+01
2.343317220211029053e+02	1.500225067138671875e+00	3.500000000000000000e+01	5.487039089202880859e-01	1.000000000000000000e+00	1.200000000000000000e+01	7.000000000000000000e+00	1.100000000000000000e+01
2.407481610774993896e+02	1.498857975006103516e+00	3.600000000000000000e+01	5.982351303100585938e-01	0.000000000000000000e+00	1.200000000000000000e+01	8.000000000000000000e+00	1.100000000000000000e+01
2.475393211841583252e+02	1.497746944427490234e+00	3.700000000000000000e+01	4.877672195434570312e-01	1.000000000000000000e+00	1.200000000000000000e+01	9.000000000000000000e+00	1.100000000000000000e+01
2.531549861431121826e+02	1.497997999191284180e+00	3.800000000000000000e+01	4.879519939422607422e-01	0.000000000000000000e+00	1.200000000000000000e+01	1.000000000000000000e+01	1.100000000000000000e+01
2.593946611881256104e+02	1.499992847442626953e+00	3.900000000000000000e+01	5.428631305694580078e-01	1.000000000000000000e+00	1.200000000000000000e+01	1.100000000000000000e+01	1.100000000000000000e+01
2.658358449935913086e+02	1.499672174453735352e+00	4.000000000000000000e+01	6.123769283294677734e-01	0.000000000000000000e+00	7.000000000000000000e+00	0.000000000000000000e+00	1.200000000000000000e+01
2.732259650230407715e+02	1.500039100646972656e+00	4.100000000000000000e+01	4.323229789733886719e-01	0.000000000000000000e+00	7.000000000000000000e+00	1.000000000000000000e+00	1.200000000000000000e+01
2.809829080104827881e+02	1.491819143295288086e+00	4.200000000000000000e+01	3.898510932922363281e-01	0.000000000000000000e+00	7.000000000000000000e+00	2.000000000000000000e+00	1.200000000000000000e+01
2.871575651168823242e+02	1.500104904174804688e+00	4.300000000000000000e+01	4.782299995422363281e-01	1.000000000000000000e+00	7.000000000000000000e+00	3.000000000000000000e+00	1.200000000000000000e+01
2.950561621189117432e+02	1.500205993652343750e+00	4.400000000000000000e+01	6.052279472351074219e-01	0.000000000000000000e+00	7.000000000000000000e+00	4.000000000000000000e+00	1.200000000000000000e+01
3.021888849735260010e+02	1.498743057250976562e+00	4.500000000000000000e+01	5.512959957122802734e-01	1.000000000000000000e+00	7.000000000000000000e+00	5.000000000000000000e+00	1.200000000000000000e+01
3.102369539737701416e+02	1.500313997268676758e+00	4.600000000000000000e+01	6.370220184326171875e-01	1.000000000000000000e+00	7.000000000000000000e+00	6.000000000000000000e+00	1.200000000000000000e+01
3.170525629520416260e+02	1.499858140945434570e+00	4.700000000000000000e+01	5.342850685119628906e-01	0.000000000000000000e+00	7.000000000000000000e+00	0.000000000000000000e+00	1.300000000000000000e+01
3.260937001705169678e+02	1.499411821365356445e+00	4.800000000000000000e+01	6.855168342590332031e-01	0.000000000000000000e+00	7.000000000000000000e+00	1.000000000000000000e+00	1.300000000000000000e+01
3.317832930088043213e+02	1.500776052474975586e+00	4.900000000000000000e+01	4.907510280609130859e-01	0.000000000000000000e+00	7.000000000000000000e+00	2.000000000000000000e+00	1.300000000000000000e+01
3.395567159652709961e+02	1.500809192657470703e+00	5.000000000000000000e+01	7.021460533142089844e-01	0.000000000000000000e+00	7.000000000000000000e+00	3.000000000000000000e+00	1.300000000000000000e+01
3.455066130161285400e+02	1.499767065048217773e+00	5.100000000000000000e+01	5.960900783538818359e-01	1.000000000000000000e+00	7.000000000000000000e+00	4.000000000000000000e+00	1.300000000000000000e+01
3.510803620815277100e+02	1.500730991363525391e+00	5.200000000000000000e+01	5.791418552398681641e-01	1.000000000000000000e+00	7.000000000000000000e+00	5.000000000000000000e+00	1.300000000000000000e+01
3.581882250308990479e+02	1.491652011871337891e+00	5.300000000000000000e+01	6.841120719909667969e-01	1.000000000000000000e+00	7.000000000000000000e+00	6.000000000000000000e+00	1.300000000000000000e+01
3.663793561458587646e+02	1.499409914016723633e+00	5.400000000000000000e+01	5.116729736328125000e-01	0.000000000000000000e+00	9.000000000000000000e+00	0.000000000000000000e+00	1.400000000000000000e+01
3.724285321235656738e+02	1.498782873153686523e+00	5.500000000000000000e+01	5.392458438873291016e-01	0.000000000000000000e+00	9.000000000000000000e+00	1.000000000000000000e+00	1.400000000000000000e+01
3.811590881347656250e+02	1.500385999679565430e+00	5.600000000000000000e+01	7.104318141937255859e-01	1.000000000000000000e+00	9.000000000000000000e+00	2.000000000000000000e+00	1.400000000000000000e+01
3.871344950199127197e+02	1.499998092651367188e+00	5.700000000000000000e+01	4.727699756622314453e-01	1.000000000000000000e+00	9.000000000000000000e+00	3.000000000000000000e+00	1.400000000000000000e+01
3.927580971717834473e+02	1.498944997787475586e+00	5.800000000000000000e+01	7.349009513854980469e-01	1.000000000000000000e+00	9.000000000000000000e+00	4.000000000000000000e+00	1.400000000000000000e+01
4.014733281135559082e+02	1.499950885772705078e+00	5.900000000000000000e+01	5.544941425323486328e-01	1.000000000000000000e+00	9.000000000000000000e+00	5.000000000000000000e+00	1.400000000000000000e+01
4.075385880470275879e+02	1.501219987869262695e+00	6.000000000000000000e+01	6.650660037994384766e-01	1.000000000000000000e+00	9.000000000000000000e+00	6.000000000000000000e+00	1.400000000000000000e+01
4.146637849807739258e+02	1.499131202697753906e+00	6.100000000000000000e+01	5.266711711883544922e-01	1.000000000000000000e+00	9.000000000000000000e+00	7.000000000000000000e+00	1.400000000000000000e+01
4.207789340019226074e+02	1.500009059906005859e+00	6.200000000000000000e+01	5.583000183105468750e-01	1.000000000000000000e+00	9.000000000000000000e+00	8.000000000000000000e+00	1.400000000000000000e+01
4.267695310115814209e+02	1.500511169433593750e+00	6.300000000000000000e+01	5.393970012664794922e-01	0.000000000000000000e+00	1.100000000000000000e+01	0.000000000000000000e+00	1.500000000000000000e+01
4.337608520984649658e+02	1.498985052108764648e+00	6.400000000000000000e+01	4.300019741058349609e-01	1.000000000000000000e+00	1.100000000000000000e+01	1.000000000000000000e+00	1.500000000000000000e+01
4.426260981559753418e+02	1.499063968658447266e+00	6.500000000000000000e+01	5.562601089477539062e-01	1.000000000000000000e+00	1.100000000000000000e+01	2.000000000000000000e+00	1.500000000000000000e+01
4.494485800266265869e+02	1.500354051589965820e+00	6.600000000000000000e+01	nan	nan	1.100000000000000000e+01	3.000000000000000000e+00	1.500000000000000000e+01
4.556651420593261719e+02	1.500365018844604492e+00	6.700000000000000000e+01	4.918348789215087891e-01	1.000000000000000000e+00	1.100000000000000000e+01	4.000000000000000000e+00	1.500000000000000000e+01
4.618392951488494873e+02	1.500547885894775391e+00	6.800000000000000000e+01	5.105221271514892578e-01	1.000000000000000000e+00	1.100000000000000000e+01	5.000000000000000000e+00	1.500000000000000000e+01
4.699385139942169189e+02	1.498942136764526367e+00	6.900000000000000000e+01	5.189690589904785156e-01	1.000000000000000000e+00	1.100000000000000000e+01	6.000000000000000000e+00	1.500000000000000000e+01
4.765212249755859375e+02	1.498843193054199219e+00	7.000000000000000000e+01	4.829351902008056641e-01	1.000000000000000000e+00	1.100000000000000000e+01	7.000000000000000000e+00	1.500000000000000000e+01
4.848535511493682861e+02	1.498919010162353516e+00	7.100000000000000000e+01	6.372859477996826172e-01	1.000000000000000000e+00	1.100000000000000000e+01	8.000000000000000000e+00	1.500000000000000000e+01
4.922190680503845215e+02	1.498765945434570312e+00	7.200000000000000000e+01	4.296598434448242188e-01	1.000000000000000000e+00	1.100000000000000000e+01	9.000000000000000000e+00	1.500000000000000000e+01
4.981842350959777832e+02	1.490669012069702148e+00	7.300000000000000000e+01	5.602710247039794922e-01	1.000000000000000000e+00	1.100000000000000000e+01	1.000000000000000000e+01	1.500000000000000000e+01
5.038082849979400635e+02	1.500063180923461914e+00	7.400000000000000000e+01	4.900259971618652344e-01	0.000000000000000000e+00	1.000000000000000000e+01	0.000000000000000000e+00	1.600000000000000000e+01
5.104824581146240234e+02	1.498992919921875000e+00	7.500000000000000000e+01	4.534409046173095703e-01	0.000000000000000000e+00	1.000000000000000000e+01	1.000000000000000000e+00	1.600000000000000000e+01
5.167642700672149658e+02	1.491801977157592773e+00	7.600000000000000000e+01	5.967340469360351562e-01	1.000000000000000000e+00	1.000000000000000000e+01	2.000000000000000000e+00	1.600000000000000000e+01
5.225308141708374023e+02	1.500163793563842773e+00	7.700000000000000000e+01	5.158889293670654297e-01	1.000000000000000000e+00	1.000000000000000000e+01	3.000000000000000000e+00	1.600000000000000000e+01
5.293709461688995361e+02	1.500055789947509766e+00	7.800000000000000000e+01	4.814291000366210938e-01	1.000000000000000000e+00	1.000000000000000000e+01	4.000000000000000000e+00	1.600000000000000000e+01
5.349859650135040283e+02	1.500576972961425781e+00	7.900000000000000000e+01	6.422219276428222656e-01	1.000000000000000000e+00	1.000000000000000000e+01	5.000000000000000000e+00	1.600000000000000000e+01
