reward_code,subj_id,condition,trial,epoch_trial,epoch_number,button_press,LR_solution,LR,reward,p_accuracy,rt,trial_end,iti_length,iti_end,stim_onset,session_n,run_n
1.0,790.0,6520.0,0.0,16.0,11.0,0.328538179397583,82.0,76.0,2.0,0.0,0.312669038772583,1.5081219673156738,6.8306028319,8.338724799215674,0.01586604118347168,7,4
1.0,790.0,6520.0,1.0,17.0,11.0,8.820373058319092,82.0,82.0,0.0,1.0,0.4559838771820068,9.85629105567932,6.5102862759,16.36657733157932,8.36438798904419,7,4
1.0,790.0,6520.0,2.0,18.0,11.0,16.948057174682617,76.0,82.0,4.0,0.0,0.567767858505249,17.880695104599003,9.1766548792,27.057349983799,16.38028311729431,7,4
1.0,790.0,6520.0,3.0,19.0,11.0,27.626749992370605,76.0,82.0,2.0,0.0,0.5472440719604492,28.57009196281433,9.3791490669,37.94924102971433,27.07949900627136,7,4
1.0,790.0,6520.0,4.0,0.0,12.0,38.52120900154113,82.0,82.0,0.0,1.0,0.5606191158294678,39.461066007614136,8.249659814899998,47.710725822514135,37.96058011054993,7,4
1.0,790.0,6520.0,5.0,1.0,12.0,48.25908017158509,76.0,82.0,2.0,0.0,0.5322890281677247,49.22614407539368,8.1061257643,57.33226983969368,47.726778030395515,7,4
1.0,790.0,6520.0,6.0,2.0,12.0,57.936712980270386,82.0,76.0,0.0,0.0,0.5784749984741211,58.84914517402648,6.3517212972,65.20086647122648,57.358235120773315,7,4
1.0,790.0,6520.0,7.0,3.0,12.0,65.8055579662323,82.0,82.0,0.0,1.0,0.581855058670044,66.7152910232544,6.394658274099998,73.10994929735439,65.22369694709778,7,4
1.0,790.0,6520.0,8.0,4.0,12.0,73.71950602531433,76.0,76.0,3.0,1.0,0.5968339443206787,74.62232303619385,6.1189629448,80.74128598099385,73.12266612052916,7,4
1.0,790.0,6520.0,9.0,5.0,12.0,81.29406404495238,82.0,82.0,3.0,1.0,0.5392880439758301,82.25460004806517,8.2252081357,90.47980818376517,80.7547471523285,7,4
1.0,790.0,6520.0,10.0,6.0,12.0,91.0557141304016,82.0,82.0,0.0,1.0,0.5524849891662598,91.99555706977843,6.3175218564,98.31307892617843,90.50322198867795,7,4
1.0,790.0,6520.0,11.0,7.0,12.0,98.95233511924744,76.0,82.0,2.0,0.0,0.6157820224761962,99.82695817947389,7.028919837999999,106.85587801747388,98.33653998374939,7,4
1.0,790.0,6520.0,12.0,8.0,12.0,107.4742031097412,76.0,76.0,0.0,1.0,0.589613914489746,108.37612700462338,7.501984415,115.87811141962338,106.88458013534546,7,4
1.0,790.0,6520.0,13.0,9.0,12.0,116.57091617584229,82.0,76.0,3.0,0.0,0.6709518432617188,117.39134097099306,8.342266416399998,125.73360738739305,115.89995598793027,7,4
1.0,790.0,6520.0,14.0,10.0,12.0,126.39159703254703,82.0,76.0,0.0,0.0,0.6426689624786377,127.24819397926328,6.807756658400001,134.05595063766327,125.74892210960387,7,4
1.0,790.0,6520.0,15.0,11.0,12.0,134.712553024292,82.0,82.0,0.0,1.0,0.6317310333251953,135.5714910030365,8.796708646499999,144.3681996495365,134.0808219909668,7,4
1.0,790.0,6520.0,16.0,12.0,12.0,145.01598715782166,76.0,76.0,3.0,1.0,0.6204330921173096,145.88721013069153,6.6602143789,152.54742450959154,144.3955509662628,7,4
1.0,790.0,6520.0,17.0,13.0,12.0,153.11089706420898,76.0,76.0,0.0,1.0,0.5493729114532471,154.06125617027283,9.7943547361,163.85561090637282,152.56151700019836,7,4
1.0,790.0,6520.0,18.0,14.0,12.0,164.51356506347653,82.0,76.0,3.0,0.0,0.637091875076294,165.3675301074982,6.8302877675,172.1978178749982,163.876471042633,7,4
1.0,790.0,6520.0,19.0,15.0,12.0,172.8973319530487,82.0,76.0,0.0,0.0,0.6724941730499268,173.71643710136414,6.6296212335,180.34605833486413,172.22483110427856,7,4
1.0,790.0,6520.0,20.0,16.0,12.0,181.1248800754547,76.0,,0.0,,,181.86576795578,6.737836669199999,188.60360462498,180.3742470741272,7,4
1.0,790.0,6520.0,21.0,17.0,12.0,189.19583201408383,76.0,76.0,0.0,1.0,0.5728900432586669,190.12278413772583,6.2146412383,196.33742537602583,188.62293696403503,7,4
1.0,790.0,6520.0,22.0,18.0,12.0,196.9405989646912,76.0,76.0,4.0,1.0,0.5851421356201172,197.85548615455627,6.253368926,204.10885508055628,196.35545206069943,7,4
1.0,790.0,6520.0,23.0,19.0,12.0,204.7365720272064,82.0,82.0,0.0,1.0,0.5994529724121093,205.62878108024603,7.115323055599999,212.74410413584602,204.13711404800412,7,4
1.0,790.0,6520.0,24.0,20.0,12.0,213.37903499603271,82.0,76.0,0.0,0.0,0.6092801094055176,214.26067996025085,7.2176845819,221.47836454215084,212.7697479724884,7,4
1.0,790.0,6520.0,25.0,21.0,12.0,222.05965614318848,76.0,82.0,2.0,0.0,0.5582950115203859,222.99312210083008,6.1973386952,229.19046079603007,221.50135111808774,7,4
1.0,790.0,6520.0,26.0,0.0,13.0,229.83057618141171,76.0,76.0,0.0,1.0,0.6133520603179932,230.70869398117063,7.5219071665,238.23060114767063,229.2172160148621,7,4
1.0,790.0,6520.0,27.0,1.0,13.0,238.88821196556088,82.0,76.0,2.0,0.0,0.6384389400482177,239.74903798103327,7.186002986699999,246.93504096773327,238.2497680187225,7,4
1.0,790.0,6520.0,28.0,2.0,13.0,247.65694308280945,82.0,76.0,0.0,0.0,0.7089879512786865,248.4480559825897,7.833443911,256.2814998935897,246.9479501247406,7,4
1.0,790.0,6520.0,29.0,3.0,13.0,256.97758007049566,76.0,76.0,1.0,1.0,0.6811490058898926,257.79661107063293,6.5511363568,264.3477474274329,256.29642605781555,7,4
1.0,790.0,6520.0,30.0,4.0,13.0,265.0086121559143,82.0,76.0,0.0,0.0,0.646996021270752,265.86226105689997,6.8253593412,272.68762039809997,264.36160802841187,7,4
1.0,790.0,6520.0,31.0,5.0,13.0,273.36432003974915,76.0,76.0,0.0,1.0,0.6528940200805664,274.2022931575775,7.9662051958,282.1684983533775,272.71142506599426,7,4
1.0,790.0,6520.0,32.0,6.0,13.0,282.76488304138184,76.0,82.0,3.0,0.0,0.5722258090972899,283.6848349571228,8.316670306,292.0015052631228,282.19265007972723,7,4
1.0,790.0,6520.0,33.0,7.0,13.0,292.57374715805054,82.0,76.0,0.0,0.0,0.5489909648895264,293.516095161438,6.5996902655,300.115785426938,292.0247530937195,7,4
1.0,790.0,6520.0,34.0,8.0,13.0,300.7983231544494,82.0,76.0,0.0,0.0,0.6576011180877686,301.63235902786255,6.142144360600001,307.77450338846256,300.14073300361633,7,4
1.0,790.0,6520.0,35.0,9.0,13.0,308.3721511363983,82.0,82.0,0.0,1.0,0.5823760032653809,309.2885620594025,6.996471843800001,316.28503390320253,307.7897701263428,7,4
1.0,790.0,6520.0,36.0,10.0,13.0,316.9528169631958,82.0,76.0,2.0,0.0,0.6482501029968261,317.8047561645508,7.3765580097,325.18131417425076,316.3045570850373,7,4
1.0,790.0,6520.0,37.0,11.0,13.0,325.8805329799652,82.0,76.0,2.0,0.0,0.676949977874756,326.69469118118286,6.198782992600001,332.89347417378286,325.20357418060297,7,4
1.0,790.0,6520.0,38.0,12.0,13.0,333.56134414672846,76.0,82.0,0.0,0.0,0.6422150135040283,334.4101390838623,6.8236166026,341.2337556864623,332.9190950393677,7,4
1.0,790.0,6520.0,39.0,13.0,13.0,341.8772251605988,76.0,76.0,0.0,1.0,0.6256310939788818,342.7516331672668,7.023105083000001,349.7747382502668,341.25161504745483,7,4
1.0,790.0,6520.0,40.0,14.0,13.0,350.4506530761719,76.0,82.0,2.0,0.0,0.6507468223571777,351.29122304916376,7.9748496299,359.26607267906377,349.79989814758295,7,4
1.0,790.0,6520.0,41.0,15.0,13.0,359.93564200401306,82.0,82.0,2.0,1.0,0.6536951065063475,360.78135895729054,8.335805110399999,369.1171640676905,359.28193902969355,7,4
1.0,790.0,6520.0,42.0,16.0,13.0,369.83927917480474,76.0,82.0,2.0,0.0,0.7081649303436279,370.63016510009766,6.763984022100001,377.39414912219763,369.131108045578,7,4
1.0,790.0,6520.0,43.0,17.0,13.0,378.05496811866755,76.0,76.0,0.0,1.0,0.6425430774688721,378.91325712203974,8.4826235838,387.3958807058397,377.4124140739441,7,4
1.0,790.0,6520.0,44.0,18.0,13.0,387.92781996726984,76.0,82.0,0.0,0.0,0.5168349742889404,388.91172313690186,7.718719605,396.63044274190185,387.4109790325165,7,4
1.0,790.0,6520.0,45.0,19.0,13.0,397.37455010414124,76.0,76.0,0.0,1.0,0.7316229343414306,398.1433320045471,8.637534137599998,406.7808661421471,396.6429221630096,7,4
1.0,790.0,6520.0,46.0,20.0,13.0,407.388069152832,76.0,82.0,3.0,0.0,0.57999587059021,408.30000901222235,7.401030339199998,415.70103935142237,406.8080689907073,7,4
1.0,790.0,6520.0,47.0,21.0,13.0,416.35284304618847,76.0,82.0,4.0,0.0,0.6289069652557373,417.2159681320191,9.6231719091,426.8391400411191,415.72393107414246,7,4
1.0,790.0,6520.0,48.0,0.0,14.0,427.52032113075256,76.0,76.0,2.0,1.0,0.664802074432373,428.35533499717707,6.2736752093,434.62901020647706,426.8555560112,7,4
1.0,790.0,6520.0,49.0,1.0,14.0,435.28126311302185,76.0,82.0,4.0,0.0,0.6258280277252197,436.1463561058045,8.360017595,444.5063737008045,434.65542602539057,7,4
1.0,790.0,6520.0,50.0,2.0,14.0,445.2090530395508,76.0,76.0,2.0,1.0,0.6893458366394043,446.01975107192993,6.5329013534000016,452.55265242532994,444.5196990966797,7,4
1.0,790.0,6520.0,51.0,3.0,14.0,453.21459317207336,76.0,82.0,3.0,0.0,0.6455819606781006,454.06926107406616,6.1614575639,460.23071863796616,452.56900715827936,7,4
1.0,790.0,6520.0,52.0,4.0,14.0,460.86446309089666,76.0,76.0,0.0,1.0,0.6135840415954589,461.751049041748,7.6808590475,469.431908089248,460.25087118148804,7,4
1.0,790.0,6520.0,53.0,5.0,14.0,470.07331013679504,76.0,82.0,0.0,0.0,0.6229212284088136,470.9495470523833,8.7780430033,479.7275900556833,469.4503860473633,7,4
1.0,790.0,6520.0,54.0,6.0,14.0,480.3369419574738,82.0,82.0,0.0,1.0,0.5886280536651611,481.23967599868763,6.6360624811,487.8757384797876,479.74831199646,7,4
1.0,790.0,6520.0,55.0,7.0,14.0,488.5316009521484,82.0,76.0,3.0,0.0,0.6346518993377686,489.3885831832885,9.319084644400002,498.7076678276885,487.8969459533691,7,4
1.0,790.0,6520.0,56.0,8.0,14.0,499.2602460384369,76.0,82.0,2.0,0.0,0.5310170650482177,500.2198100090026,6.5539072123,506.77371722130255,498.72922611236567,7,4
1.0,790.0,6520.0,57.0,9.0,14.0,507.38210010528564,82.0,82.0,0.0,1.0,0.5883259773254395,508.2942430973053,6.2067479573,514.5009910546053,506.7937669754028,7,4
1.0,790.0,6520.0,58.0,10.0,14.0,515.1789779663086,76.0,76.0,3.0,1.0,0.6519429683685303,516.0176830291748,9.2971715128,525.3148545419748,514.52702999115,7,4
1.0,790.0,6520.0,59.0,11.0,14.0,525.9584381580353,76.0,76.0,2.0,1.0,0.6167430877685546,526.8328821659088,6.6455411483,533.4784233142088,525.3416900634766,7,4
