reward_code,subj_id,condition,trial,epoch_trial,epoch_number,button_press,LR_solution,LR,reward,p_accuracy,rt,trial_end,iti_length,iti_end,stim_onset,session_n,run_n
0.0,860.0,6510.0,0.0,4.0,17.0,0.5084359645843506,76.0,82.0,0.0,0.0,0.4981341361999512,1.5086820125579832,7.098034072502423,8.606716085060405,0.010256052017211914,4,4
0.0,860.0,6510.0,1.0,5.0,17.0,9.157346010208128,76.0,76.0,0.0,1.0,0.5327601432800293,10.123739004135134,12.967403874377805,23.09114287851294,8.624580144882202,4,4
0.0,860.0,6510.0,2.0,0.0,18.0,23.59080314636231,76.0,76.0,4.0,1.0,0.4857230186462401,24.604905128479007,6.809520101302649,31.414425229781656,23.105071067810055,4,4
0.0,860.0,6510.0,3.0,1.0,18.0,31.955968141555783,76.0,76.0,3.0,1.0,0.5272409915924072,32.928697109222405,4.293979477341642,37.22267658656405,31.42871809005737,4,4
0.0,860.0,6510.0,4.0,2.0,18.0,37.75062298774719,82.0,82.0,4.0,1.0,0.5141010284423827,38.73638510704041,7.729294804652678,46.46567991169309,37.236515998840325,4,4
0.0,860.0,6510.0,5.0,3.0,18.0,47.02315902709961,76.0,76.0,0.0,1.0,0.5463910102844238,47.97665500640869,4.6147396654114,52.59139467182009,46.47676110267639,4,4
0.0,860.0,6510.0,6.0,4.0,18.0,53.298019170761116,76.0,76.0,2.0,1.0,0.6891210079193115,54.10851001739501,4.42407914760514,58.532589165000154,52.60889196395873,4,4
0.0,860.0,6510.0,7.0,5.0,18.0,59.08409214019775,76.0,76.0,0.0,1.0,0.533513069152832,60.04911112785339,6.775928492140405,66.82503961999379,58.550570011138916,4,4
0.0,860.0,6510.0,8.0,6.0,18.0,67.48695302009584,82.0,76.0,2.0,0.0,0.646726131439209,68.34040808677673,5.049061994687847,73.38947008146458,66.84021997451782,4,4
0.0,860.0,6510.0,9.0,7.0,18.0,73.97940206527711,82.0,76.0,0.0,0.0,0.5724189281463622,74.90571904182433,5.379616345472852,80.28533538729718,73.40697312355042,4,4
0.0,860.0,6510.0,10.0,8.0,18.0,80.93025612831116,82.0,76.0,0.0,0.0,0.6248259544372559,81.80532598495483,4.240113276254004,86.04543926120884,80.3054280281067,4,4
0.0,860.0,6510.0,11.0,9.0,18.0,86.58821415901184,76.0,76.0,4.0,1.0,0.5256459712982178,87.5628890991211,4.750159272523193,92.31304837164429,86.06255912780762,4,4
0.0,860.0,6510.0,12.0,10.0,18.0,92.83510518074037,82.0,82.0,2.0,1.0,0.5068120956420897,93.82905006408691,6.602241360579196,100.43129142466611,92.32828116416931,4,4
0.0,860.0,6510.0,13.0,0.0,19.0,101.01494097709656,82.0,76.0,0.0,0.0,0.5705509185791016,101.94371008872986,6.211678000341853,108.1553880890717,100.44438314437865,4,4
0.0,860.0,6510.0,14.0,1.0,19.0,108.7006471157074,76.0,82.0,0.0,0.0,0.5319898128509521,109.66744613647461,4.504647283248998,114.17209341972361,108.16865301132201,4,4
0.0,860.0,6510.0,15.0,2.0,19.0,114.67664217948912,82.0,76.0,3.0,0.0,0.4843261241912841,115.68356704711913,5.020285322165721,120.70385236928485,114.19231319427489,4,4
0.0,860.0,6510.0,16.0,3.0,19.0,121.24637603759764,82.0,76.0,0.0,0.0,0.521773099899292,122.21617913246155,4.249495657096527,126.46567478955808,120.72459912300108,4,4
0.0,860.0,6510.0,17.0,4.0,19.0,127.12928414344786,82.0,76.0,2.0,0.0,0.6474769115447999,127.98144817352296,12.051562229780867,140.03301040330382,126.481810092926,4,4
0.0,860.0,6510.0,18.0,5.0,19.0,140.60766816139218,76.0,82.0,0.0,0.0,0.5611650943756104,141.54660296440125,7.818539613636691,149.36514257803793,140.04649901390079,4,4
0.0,860.0,6510.0,19.0,6.0,19.0,149.91253113746643,76.0,82.0,1.0,0.0,0.53432297706604,150.87859106063843,4.041528844091328,154.92011990472975,149.37819814682007,4,4
0.0,860.0,6510.0,20.0,7.0,19.0,155.51346015930176,76.0,76.0,3.0,1.0,0.5771300792694092,156.4358820915222,13.266079274290703,169.7019613658129,154.93632316589358,4,4
0.0,860.0,6510.0,21.0,8.0,19.0,170.23676300048828,76.0,82.0,0.0,0.0,0.5193500518798829,171.217679977417,4.354640525740493,175.57232050315747,169.71740698814392,4,4
0.0,860.0,6510.0,22.0,9.0,19.0,176.22876715660095,82.0,76.0,5.0,0.0,0.6372058391571045,177.09145998954773,10.404601946563137,187.49606193611086,175.59155201911926,4,4
0.0,860.0,6510.0,23.0,10.0,19.0,188.06544613838196,76.0,82.0,0.0,0.0,0.5504560470581055,189.0065050125122,4.702646296432311,193.7091513089445,187.51498413085938,4,4
0.0,860.0,6510.0,24.0,11.0,19.0,194.3971621990204,76.0,76.0,3.0,1.0,0.674781084060669,195.22217798233032,7.055070842173159,202.2772488245035,193.72237610816958,4,4
0.0,860.0,6510.0,25.0,12.0,19.0,202.8923180103302,76.0,76.0,0.0,1.0,0.5957510471343994,203.78822898864743,5.269037935159757,209.0572669238072,202.29656314849854,4,4
0.0,860.0,6510.0,26.0,13.0,19.0,209.70415711402893,76.0,76.0,0.0,1.0,0.6332948207855223,210.57050800323486,7.139041469391513,217.70954947262638,209.07085609436035,4,4
0.0,860.0,6510.0,27.0,0.0,20.0,218.2057499885559,82.0,82.0,2.0,1.0,0.4777500629425048,219.21826910972595,4.011006451234468,223.22927556096042,217.72799515724185,4,4
0.0,860.0,6510.0,28.0,1.0,20.0,223.84768915176392,76.0,76.0,3.0,1.0,0.6042289733886719,224.74327301979065,6.848771836207425,231.59204485599807,223.24345517158508,4,4
0.0,860.0,6510.0,29.0,2.0,20.0,232.17939901351932,82.0,82.0,0.0,1.0,0.5700249671936035,233.10859298706052,9.122040818958027,242.23063380601855,231.60937118530273,4,4
0.0,860.0,6510.0,30.0,3.0,20.0,242.85202217102048,82.0,76.0,2.0,0.0,0.6030628681182861,243.74953413009644,4.091336810590673,247.8408709406871,242.24895000457764,4,4
0.0,860.0,6510.0,31.0,4.0,20.0,248.5928981304169,76.0,76.0,0.0,1.0,0.7357709407806396,249.35594916343686,7.9012475953713395,257.2571967588082,247.85712099075323,4,4
0.0,860.0,6510.0,32.0,5.0,20.0,257.910856962204,76.0,76.0,2.0,1.0,0.6393160820007324,258.7717771530152,8.10680883539959,266.8785859884148,257.27152919769287,4,4
0.0,860.0,6510.0,33.0,6.0,20.0,267.44228410720825,82.0,76.0,0.0,0.0,0.5465569496154785,268.3959951400757,4.382745720737636,272.77874086081334,266.8957161903381,4,4
0.0,860.0,6510.0,34.0,7.0,20.0,273.3652341365814,76.0,82.0,0.0,0.0,0.5706779956817626,274.2945430278778,9.912521220665145,284.20706424854296,272.7945520877838,4,4
0.0,860.0,6510.0,35.0,8.0,20.0,284.81093311309814,76.0,76.0,2.0,1.0,0.58436918258667,285.72621798515326,5.574403990960314,291.3006219761136,284.226557970047,4,4
0.0,860.0,6510.0,36.0,9.0,20.0,291.85165810585016,82.0,82.0,0.0,1.0,0.5348508358001709,292.8165011405945,9.080624843847492,301.89712598444197,291.31680202484125,4,4
0.0,860.0,6510.0,37.0,10.0,20.0,302.4204270839691,76.0,76.0,0.0,1.0,0.5045030117034912,303.40713310241694,5.868190161869568,309.2753232642865,301.91592097282404,4,4
0.0,860.0,6510.0,38.0,11.0,20.0,309.96026897430414,76.0,76.0,4.0,1.0,0.6705768108367921,310.78896713256836,4.4416054447281565,315.2305725772965,309.2896881103516,4,4
0.0,860.0,6510.0,39.0,12.0,20.0,315.77919816970825,82.0,82.0,0.0,1.0,0.5329360961914062,316.74714708328247,5.25062722127532,321.99777430455777,315.24625802040106,4,4
0.0,860.0,6510.0,40.0,13.0,20.0,322.5841131210327,76.0,76.0,2.0,1.0,0.5717408657073975,323.51270103454584,4.388224462371711,327.9009254969176,322.0123641490936,4,4
0.0,860.0,6510.0,41.0,14.0,20.0,328.5799071788788,82.0,82.0,3.0,1.0,0.6593060493469238,329.42015004158026,9.590491336095551,339.0106413776758,327.92059397697443,4,4
0.0,860.0,6510.0,42.0,0.0,21.0,339.63776111602783,76.0,82.0,0.0,0.0,0.6105818748474121,340.52690505981445,8.251567112783281,348.77847217259773,339.0271751880646,4,4
0.0,860.0,6510.0,43.0,1.0,21.0,349.3925080299377,76.0,82.0,0.0,0.0,0.599738121032715,350.29188299179077,4.6519952533065405,354.9438782450973,348.79276418685913,4,4
0.0,860.0,6510.0,44.0,2.0,21.0,355.5040941238404,82.0,76.0,1.0,0.0,0.5461010932922363,356.4577431678772,5.968476809261218,362.42621997713843,354.95798707008356,4,4
0.0,860.0,6510.0,45.0,3.0,21.0,363.02086305618286,82.0,76.0,0.0,0.0,0.5806930065155028,363.94014596939087,4.580566704251916,368.5207126736428,362.4401700496673,4,4
0.0,860.0,6510.0,46.0,4.0,21.0,369.041687965393,76.0,82.0,0.0,0.0,0.5025160312652588,370.030641078949,4.90747126382438,374.93811234277337,368.53916716575617,4,4
0.0,860.0,6510.0,47.0,5.0,21.0,375.5286409854889,82.0,82.0,0.0,1.0,0.5737850666046143,376.4554200172424,6.580187450248784,383.03560746749116,374.95484900474554,4,4
0.0,860.0,6510.0,48.0,6.0,21.0,383.6584331989288,76.0,76.0,0.0,1.0,0.6045610904693604,384.5538799762726,4.8548579926296975,389.4087379689023,383.0538680553436,4,4
0.0,860.0,6510.0,49.0,7.0,21.0,390.1250531673431,82.0,76.0,0.0,0.0,0.6972150802612305,390.9277920722962,4.297662982990496,395.2254550552867,389.42783308029175,4,4
0.0,860.0,6510.0,50.0,8.0,21.0,395.8929769992828,76.0,82.0,0.0,0.0,0.6487960815429688,396.7432851791381,5.5015477734996585,402.2448329526378,395.24417114257807,4,4
0.0,860.0,6510.0,51.0,0.0,22.0,403.0100510120392,76.0,,0.0,,,403.760262966156,4.241764258514288,408.0020272246703,402.2596201896667,4,4
0.0,860.0,6510.0,52.0,1.0,22.0,408.52064514160156,76.0,82.0,0.0,0.0,0.5031740665435791,409.5160391330719,4.571092554720424,414.08713168779235,408.0174660682678,4,4
0.0,860.0,6510.0,53.0,2.0,22.0,414.74352312088007,82.0,76.0,0.0,0.0,0.6432271003723145,415.59969019889826,12.914118323921565,428.51380852281983,414.10028815269476,4,4
0.0,860.0,6510.0,54.0,3.0,22.0,429.05513000488287,76.0,76.0,0.0,1.0,0.5238549709320068,430.0215990543365,5.8305608996713065,435.8521599540078,428.53127217292797,4,4
0.0,860.0,6510.0,55.0,4.0,22.0,436.44003319740295,76.0,82.0,0.0,0.0,0.5683860778808595,437.3667261600494,4.716477414271824,442.0832035743212,435.87164306640636,4,4
0.0,860.0,6510.0,56.0,5.0,22.0,442.6237051486969,76.0,76.0,5.0,1.0,0.5194010734558105,443.6039021015167,6.320186860055274,449.924088961572,442.10429596900934,4,4
0.0,860.0,6510.0,57.0,6.0,22.0,450.5407061576843,76.0,76.0,0.0,1.0,0.59663987159729,451.4445190429688,6.183455743809968,457.6279747867788,449.94405007362366,4,4
0.0,860.0,6510.0,58.0,7.0,22.0,458.2145609855652,82.0,82.0,0.0,1.0,0.5714409351348877,459.14321112632757,6.905363092800176,466.0485742191278,457.64311313629156,4,4
0.0,860.0,6510.0,59.0,0.0,23.0,466.6263210773468,82.0,76.0,0.0,0.0,0.5597069263458252,467.56771206855774,6.566170534701842,474.13388260325956,466.06661200523376,4,4
