reward_code,subj_id,condition,trial,epoch_trial,epoch_number,button_press,LR_solution,LR,reward,p_accuracy,rt,trial_end,iti_length,iti_end,stim_onset,session_n,run_n
0.0,860.0,6510.0,0.0,4.0,5.0,0.42282295227050787,76.0,76.0,0.0,1.0,0.4067058563232422,1.5050098896026611,5.188999377411408,6.694009267014069,0.016108036041259762,4,2
0.0,860.0,6510.0,1.0,5.0,5.0,7.225811958312989,82.0,76.0,2.0,0.0,0.5183849334716797,8.205197095870972,4.477124773868364,12.682321869739337,6.707420110702515,4,2
0.0,860.0,6510.0,2.0,6.0,5.0,13.191617012023924,76.0,82.0,3.0,0.0,0.4933638572692871,14.197957038879393,8.000890184964652,22.198847223844044,12.698245048522947,4,2
0.0,860.0,6510.0,3.0,7.0,5.0,22.742088079452515,76.0,82.0,0.0,0.0,0.528083086013794,23.713063001632683,9.118902156363612,32.831965157996294,22.21399807929993,4,2
0.0,860.0,6510.0,4.0,8.0,5.0,33.3399589061737,76.0,82.0,0.0,0.0,0.4943528175354003,34.34455394744873,6.584883287357568,40.9294372348063,32.84559488296509,4,2
0.0,860.0,6510.0,5.0,9.0,5.0,41.545418977737434,76.0,76.0,2.0,1.0,0.6015679836273193,42.44414496421814,6.274870322038031,48.71901528625617,40.94384503364562,4,2
0.0,860.0,6510.0,6.0,0.0,6.0,49.270343065261834,76.0,76.0,2.0,1.0,0.5361261367797852,50.23247694969177,7.044449368515261,57.27692631820703,48.7342131137848,4,2
0.0,860.0,6510.0,7.0,1.0,6.0,57.86802005767822,76.0,82.0,2.0,0.0,0.5765600204467773,58.79171299934387,7.2689646151010034,66.06067761444487,57.29145789146423,4,2
0.0,860.0,6510.0,8.0,2.0,6.0,66.57383394241333,76.0,82.0,3.0,0.0,0.5005369186401367,67.57345294952393,4.0324535393943695,71.6059064889183,66.07329607009888,4,2
0.0,860.0,6510.0,9.0,3.0,6.0,72.22554802894592,76.0,76.0,0.0,1.0,0.6029820442199707,73.12283492088318,5.771485464641272,78.89432038552445,71.62255692481995,4,2
0.0,860.0,6510.0,10.0,4.0,6.0,79.52121400833128,82.0,76.0,0.0,0.0,0.6087949275970459,80.41081404685976,5.161953582837555,85.57276762969731,78.91241502761841,4,2
0.0,860.0,6510.0,11.0,5.0,6.0,86.13021993637086,82.0,76.0,0.0,0.0,0.5431840419769286,87.08747601509094,5.4568780425376175,92.54435405762857,85.58702993392944,4,2
0.0,860.0,6510.0,12.0,6.0,6.0,93.02392411231993,82.0,82.0,5.0,1.0,0.4621992111206055,94.05897998809814,5.676540590161968,99.73552057826011,92.56171703338623,4,2
0.0,860.0,6510.0,13.0,7.0,6.0,100.30178403854369,82.0,82.0,2.0,1.0,0.5502400398254395,101.25210595130919,7.2744710940921875,108.52657704540138,99.75154089927672,4,2
0.0,860.0,6510.0,14.0,8.0,6.0,109.17345309257507,76.0,82.0,2.0,0.0,0.6312739849090575,110.04120588302611,6.218927914790647,116.26013379781675,108.54217100143431,4,2
0.0,860.0,6510.0,15.0,9.0,6.0,117.02520895004272,76.0,,0.0,,,117.77183604240415,7.756987202157639,125.52882324456178,116.2747058868408,4,2
0.0,860.0,6510.0,16.0,10.0,6.0,126.08485388755798,76.0,76.0,2.0,1.0,0.5364441871643066,127.04859590530396,5.463235508356936,132.5118314136609,125.54840588569641,4,2
0.0,860.0,6510.0,17.0,0.0,7.0,133.14179491996765,82.0,76.0,2.0,0.0,0.6108560562133788,134.0295069217682,7.191331405134504,141.22083832690268,132.53093099594113,4,2
0.0,860.0,6510.0,18.0,1.0,7.0,141.68550992012027,76.0,82.0,0.0,0.0,0.4476280212402344,142.73542308807373,4.0943041846135255,146.82972727268725,141.23787903785706,4,2
0.0,860.0,6510.0,19.0,2.0,7.0,147.4699718952179,82.0,76.0,1.0,0.0,0.6252031326293944,148.3451130390167,5.909726682874817,154.2548397218915,146.84475803375244,4,2
0.0,860.0,6510.0,20.0,3.0,7.0,154.79792189598083,82.0,76.0,0.0,0.0,0.5292959213256836,155.76709198951718,4.091269071319938,159.85836106083713,154.268620967865,4,2
0.0,860.0,6510.0,21.0,4.0,7.0,160.37395906448364,76.0,76.0,4.0,1.0,0.4978868961334229,161.3761579990387,5.079089629078186,166.4552476281169,159.87606811523435,4,2
0.0,860.0,6510.0,22.0,5.0,7.0,167.0987570285797,82.0,82.0,4.0,1.0,0.6235940456390381,167.9756999015808,6.19620554053588,174.1719054421167,166.4751570224762,4,2
0.0,860.0,6510.0,23.0,6.0,7.0,174.80919194221497,76.0,76.0,3.0,1.0,0.6181328296661377,175.69064688682556,5.833725627213518,181.52437251403907,174.19104409217832,4,2
0.0,860.0,6510.0,24.0,7.0,7.0,182.07319402694705,82.0,82.0,3.0,1.0,0.5333158969879152,183.0394320487976,5.728807186311911,188.76823923510952,181.53987407684326,4,2
0.0,860.0,6510.0,25.0,8.0,7.0,189.32801103591922,82.0,76.0,0.0,0.0,0.5467710494995117,190.27895808219907,4.903254674504959,195.18221275670402,188.7812259197235,4,2
0.0,860.0,6510.0,26.0,9.0,7.0,195.7995600700378,76.0,76.0,0.0,1.0,0.6041951179504395,196.69462990760803,5.095830302809889,201.79046021041793,195.19535589218137,4,2
0.0,860.0,6510.0,27.0,10.0,7.0,202.34933805465698,76.0,82.0,0.0,0.0,0.5459160804748535,203.30310201644897,10.011723367550246,213.31482538399922,201.8034150600433,4,2
0.0,860.0,6510.0,28.0,11.0,7.0,213.83010101318362,82.0,76.0,0.0,0.0,0.5030739307403564,214.82562708854675,4.535428368226528,219.36105545677327,213.32702898979187,4,2
0.0,860.0,6510.0,29.0,12.0,7.0,219.86897397041318,76.0,76.0,2.0,1.0,0.4944911003112793,220.87449002265927,9.927014912345363,230.80150493500463,219.37445497512817,4,2
0.0,860.0,6510.0,30.0,13.0,7.0,231.38150691986084,82.0,82.0,0.0,1.0,0.5657172203063965,232.31541109085086,4.89985589575449,237.21526698660534,230.8157849311829,4,2
0.0,860.0,6510.0,31.0,14.0,7.0,237.7832109928131,82.0,82.0,3.0,1.0,0.5518078804016113,238.73206090927124,7.898247069051277,246.63030797832252,237.2313940525055,4,2
0.0,860.0,6510.0,32.0,15.0,7.0,247.1949939727783,76.0,76.0,0.0,1.0,0.5481560230255126,248.1469669342041,6.234868604996578,254.38183553920067,246.646833896637,4,2
0.0,860.0,6510.0,33.0,16.0,7.0,254.97084808349604,76.0,76.0,4.0,1.0,0.5758230686187744,255.89600706100464,4.9064388890639945,260.80244595006866,254.39501690864557,4,2
0.0,860.0,6510.0,34.0,17.0,7.0,261.32550311088556,82.0,82.0,2.0,1.0,0.5062990188598632,262.3181400299072,6.591415478932089,268.90955550883933,260.8192000389099,4,2
0.0,860.0,6510.0,35.0,0.0,8.0,269.4123339653015,76.0,82.0,4.0,0.0,0.4851741790771485,270.4267480373382,13.514404080613053,283.9411521179513,268.927148103714,4,2
0.0,860.0,6510.0,36.0,1.0,8.0,284.4348680973053,76.0,82.0,0.0,0.0,0.4767930507659911,285.45809388160706,4.2325316868196206,289.6906255684267,283.95807003974915,4,2
0.0,860.0,6510.0,37.0,2.0,8.0,290.3626940250397,76.0,82.0,0.0,0.0,0.6552100181579589,291.20769810676575,4.089465382169673,295.29716348893544,289.7074780464172,4,2
0.0,860.0,6510.0,38.0,3.0,8.0,295.90639090538025,82.0,76.0,1.0,0.0,0.5922179222106934,296.8132789134979,7.0128309923812475,303.82610990587915,295.31416988372797,4,2
0.0,860.0,6510.0,39.0,4.0,8.0,304.3943569660187,76.0,82.0,0.0,0.0,0.5551779270172119,305.33792805671686,7.455672649698743,312.7936007064156,303.8391718864441,4,2
0.0,860.0,6510.0,40.0,5.0,8.0,313.33298802375793,82.0,76.0,3.0,0.0,0.5208189487457275,314.31071496009827,10.236343539218717,324.54705849931696,312.812164068222,4,2
0.0,860.0,6510.0,41.0,6.0,8.0,325.2114961147308,76.0,82.0,4.0,0.0,0.6423490047454834,326.05979394912714,4.522188678478951,330.58198262760607,324.56914091110224,4,2
0.0,860.0,6510.0,42.0,7.0,8.0,331.13645410537725,82.0,82.0,3.0,1.0,0.5352210998535156,332.10156989097595,4.466279821170359,336.5678497121463,330.6012289524078,4,2
0.0,860.0,6510.0,43.0,8.0,8.0,337.21233701705927,76.0,76.0,0.0,1.0,0.6280450820922852,338.0832788944245,9.310943625710287,347.3942225201348,336.5842800140381,4,2
0.0,860.0,6510.0,44.0,9.0,8.0,348.0197858810425,82.0,76.0,0.0,0.0,0.6125519275665283,348.90601706504816,8.442991547696934,357.3490086127451,347.4072210788727,4,2
0.0,860.0,6510.0,45.0,10.0,8.0,357.9614670276641,82.0,76.0,0.0,0.0,0.5970559120178223,358.8643980026245,6.831132506620168,365.6955305092447,357.3644070625305,4,2
0.0,860.0,6510.0,46.0,0.0,9.0,366.4034359455109,76.0,82.0,0.0,0.0,0.691213846206665,367.2129559516907,5.430745552812938,372.6437015045036,365.712217092514,4,2
0.0,860.0,6510.0,47.0,1.0,9.0,373.2510468959808,76.0,82.0,0.0,0.0,0.589048147201538,374.1611499786377,5.4133934924827525,379.5745434711204,372.661994934082,4,2
0.0,860.0,6510.0,48.0,2.0,9.0,380.13719391822815,82.0,82.0,0.0,1.0,0.5430941581726074,381.09382796287537,9.30976898371963,390.403596946595,379.59409594535833,4,2
0.0,860.0,6510.0,49.0,3.0,9.0,391.06164598464966,76.0,82.0,3.0,0.0,0.6442620754241943,391.9159429073334,9.702713686644582,401.61865659397796,390.4173829555512,4,2
0.0,860.0,6510.0,50.0,4.0,9.0,402.15018606185913,76.0,82.0,0.0,0.0,0.5181369781494141,403.13177490234375,5.5837210121782395,408.71549591452197,401.63204193115234,4,2
0.0,860.0,6510.0,51.0,0.0,10.0,409.3688509464264,76.0,76.0,3.0,1.0,0.6373097896575928,410.23084902763367,9.721908283619673,419.9527573112533,408.73153305053705,4,2
0.0,860.0,6510.0,52.0,1.0,10.0,420.5565509796143,82.0,82.0,2.0,1.0,0.5853378772735596,421.47094988822937,4.511089415968307,425.98203930419766,419.9712069034576,4,2
0.0,860.0,6510.0,53.0,2.0,10.0,426.6044559478759,76.0,76.0,3.0,1.0,0.6090109348297119,427.4940218925476,6.866546581269922,434.3605684738175,425.99544095993036,4,2
0.0,860.0,6510.0,54.0,3.0,10.0,434.9292531013489,82.0,82.0,3.0,1.0,0.5517981052398682,435.87717294692993,6.9298674789231365,442.8070404258531,434.3774499893189,4,2
0.0,860.0,6510.0,55.0,4.0,10.0,443.37767910957336,76.0,76.0,2.0,1.0,0.5520999431610107,444.325758934021,4.703574470269642,449.02933340429064,442.8255589008332,4,2
0.0,860.0,6510.0,56.0,5.0,10.0,449.66375303268427,76.0,76.0,2.0,1.0,0.6217689514160156,450.541023015976,7.240089433536212,457.7811124495122,449.0419790744781,4,2
0.0,860.0,6510.0,57.0,6.0,10.0,458.550008058548,82.0,,0.0,,,459.2991859912872,4.47383828047326,463.77302427176045,457.7995579242706,4,2
0.0,860.0,6510.0,58.0,7.0,10.0,464.3092110157013,82.0,82.0,1.0,1.0,0.5193700790405275,465.2893209457397,4.219957126179616,469.5092780719193,463.78985691070557,4,2
0.0,860.0,6510.0,59.0,0.0,11.0,470.1990900039673,82.0,76.0,0.0,0.0,0.6771090030670167,471.02169299125666,8.503626894155277,479.52531988541193,469.5219750404358,4,2
