stim_onset, stim_duration, trial_type, rt, accuracy, epoch_length,epoch_trial, epoch_number
3.912133099947823212e-02	1.483181235998927150e+00	0.000000000000000000e+00	nan	nan	7.000000000000000000e+00	0.000000000000000000e+00	0.000000000000000000e+00
6.323693801001354586e+00	1.485874840000178665e+00	1.000000000000000000e+00	nan	nan	7.000000000000000000e+00	1.000000000000000000e+00	0.000000000000000000e+00
1.228859988700423855e+01	1.500209739999263547e+00	2.000000000000000000e+00	nan	nan	7.000000000000000000e+00	2.000000000000000000e+00	0.000000000000000000e+00
2.094977193100203294e+01	1.482311198000388686e+00	3.000000000000000000e+00	nan	nan	7.000000000000000000e+00	3.000000000000000000e+00	0.000000000000000000e+00
2.977522777500416851e+01	1.483498533998499624e+00	4.000000000000000000e+00	nan	nan	7.000000000000000000e+00	4.000000000000000000e+00	0.000000000000000000e+00
3.747629982700163964e+01	1.486202596999646630e+00	5.000000000000000000e+00	nan	nan	7.000000000000000000e+00	5.000000000000000000e+00	0.000000000000000000e+00
4.503230637199885678e+01	1.481663680002384353e+00	6.000000000000000000e+00	nan	nan	7.000000000000000000e+00	6.000000000000000000e+00	0.000000000000000000e+00
5.081709650200355100e+01	1.484062128001824021e+00	7.000000000000000000e+00	nan	nan	1.400000000000000000e+01	0.000000000000000000e+00	1.000000000000000000e+00
5.665427333700063173e+01	1.484847523999633268e+00	8.000000000000000000e+00	nan	nan	1.400000000000000000e+01	1.000000000000000000e+00	1.000000000000000000e+00
6.220559717600553995e+01	1.485756544992909767e+00	9.000000000000000000e+00	nan	nan	1.400000000000000000e+01	2.000000000000000000e+00	1.000000000000000000e+00
6.987904267800331581e+01	1.481251404002250638e+00	1.000000000000000000e+01	nan	nan	1.400000000000000000e+01	3.000000000000000000e+00	1.000000000000000000e+00
7.562866809000115609e+01	1.501219138001033571e+00	1.100000000000000000e+01	nan	nan	1.400000000000000000e+01	4.000000000000000000e+00	1.000000000000000000e+00
8.211533319600130199e+01	1.485893550998298451e+00	1.200000000000000000e+01	nan	nan	1.400000000000000000e+01	5.000000000000000000e+00	1.000000000000000000e+00
8.905292632800410502e+01	1.482133797995629720e+00	1.300000000000000000e+01	nan	nan	1.400000000000000000e+01	6.000000000000000000e+00	1.000000000000000000e+00
9.683172537700011162e+01	1.474404120002873242e+00	1.400000000000000000e+01	nan	nan	1.400000000000000000e+01	7.000000000000000000e+00	1.000000000000000000e+00
1.030641272130014841e+02	1.482315970999479759e+00	1.500000000000000000e+01	nan	nan	1.400000000000000000e+01	8.000000000000000000e+00	1.000000000000000000e+00
1.113237240180023946e+02	1.483759253002062906e+00	1.600000000000000000e+01	nan	nan	1.400000000000000000e+01	9.000000000000000000e+00	1.000000000000000000e+00
1.174205875180050498e+02	1.481625093998445664e+00	1.700000000000000000e+01	nan	nan	1.400000000000000000e+01	1.000000000000000000e+01	1.000000000000000000e+00
1.266674494840044645e+02	1.478303176998451818e+00	1.800000000000000000e+01	nan	nan	1.400000000000000000e+01	1.100000000000000000e+01	1.000000000000000000e+00
1.329382546350025223e+02	1.481859881998389028e+00	1.900000000000000000e+01	nan	nan	1.400000000000000000e+01	1.200000000000000000e+01	1.000000000000000000e+00
1.389926432749998639e+02	1.481575792000512592e+00	2.000000000000000000e+01	nan	nan	1.400000000000000000e+01	1.300000000000000000e+01	1.000000000000000000e+00
1.451627713310008403e+02	1.484500352002214640e+00	2.100000000000000000e+01	nan	nan	1.100000000000000000e+01	0.000000000000000000e+00	2.000000000000000000e+00
1.508167214800050715e+02	1.483290191994456109e+00	2.200000000000000000e+01	nan	nan	1.100000000000000000e+01	1.000000000000000000e+00	2.000000000000000000e+00
1.565069250910019036e+02	1.486114676001307089e+00	2.300000000000000000e+01	nan	nan	1.100000000000000000e+01	2.000000000000000000e+00	2.000000000000000000e+00
1.630660158730024705e+02	1.480469966001692228e+00	2.400000000000000000e+01	nan	nan	1.100000000000000000e+01	3.000000000000000000e+00	2.000000000000000000e+00
1.697232375060048071e+02	1.483923457999480888e+00	2.500000000000000000e+01	nan	nan	1.100000000000000000e+01	4.000000000000000000e+00	2.000000000000000000e+00
1.753660798190030619e+02	1.480698557999858167e+00	2.600000000000000000e+01	nan	nan	1.100000000000000000e+01	5.000000000000000000e+00	2.000000000000000000e+00
1.823365285539985052e+02	1.489996924006845802e+00	2.700000000000000000e+01	nan	nan	1.100000000000000000e+01	6.000000000000000000e+00	2.000000000000000000e+00
1.889658420179985114e+02	1.484740910003893077e+00	2.800000000000000000e+01	nan	nan	1.100000000000000000e+01	7.000000000000000000e+00	2.000000000000000000e+00
1.962426145360004739e+02	1.486658139998326078e+00	2.900000000000000000e+01	nan	nan	1.100000000000000000e+01	8.000000000000000000e+00	2.000000000000000000e+00
2.022284725819990854e+02	1.487030095006048214e+00	3.000000000000000000e+01	nan	nan	1.100000000000000000e+01	9.000000000000000000e+00	2.000000000000000000e+00
2.084879131400011829e+02	1.482621513998310547e+00	3.100000000000000000e+01	nan	nan	1.100000000000000000e+01	1.000000000000000000e+01	2.000000000000000000e+00
2.158919473300047684e+02	1.499076840998895932e+00	3.200000000000000000e+01	nan	nan	7.000000000000000000e+00	0.000000000000000000e+00	3.000000000000000000e+00
2.236769564300047932e+02	1.483731660999183077e+00	3.300000000000000000e+01	nan	nan	7.000000000000000000e+00	1.000000000000000000e+00	3.000000000000000000e+00
2.297142563259985764e+02	1.481722561002243310e+00	3.400000000000000000e+01	nan	nan	7.000000000000000000e+00	2.000000000000000000e+00	3.000000000000000000e+00
2.352992603560051066e+02	1.503022767996299081e+00	3.500000000000000000e+01	nan	nan	7.000000000000000000e+00	3.000000000000000000e+00	3.000000000000000000e+00
2.417533319610010949e+02	1.486421898000116926e+00	3.600000000000000000e+01	nan	nan	7.000000000000000000e+00	4.000000000000000000e+00	3.000000000000000000e+00
2.485746478110013413e+02	1.482300704999943264e+00	3.700000000000000000e+01	nan	nan	7.000000000000000000e+00	5.000000000000000000e+00	3.000000000000000000e+00
2.542133890129989595e+02	1.481742647003557067e+00	3.800000000000000000e+01	nan	nan	7.000000000000000000e+00	6.000000000000000000e+00	3.000000000000000000e+00
2.604646871799996006e+02	1.483476628003700171e+00	3.900000000000000000e+01	nan	nan	8.000000000000000000e+00	0.000000000000000000e+00	4.000000000000000000e+00
2.669342296590039041e+02	1.483309324998117518e+00	4.000000000000000000e+01	nan	nan	8.000000000000000000e+00	1.000000000000000000e+00	4.000000000000000000e+00
2.743550207630032673e+02	1.483283424997352995e+00	4.100000000000000000e+01	nan	nan	8.000000000000000000e+00	2.000000000000000000e+00	4.000000000000000000e+00
2.821666390989994397e+02	1.485659558005863801e+00	4.200000000000000000e+01	nan	nan	8.000000000000000000e+00	3.000000000000000000e+00	4.000000000000000000e+00
2.883882898119991296e+02	1.481575816003896762e+00	4.300000000000000000e+01	nan	nan	8.000000000000000000e+00	4.000000000000000000e+00	4.000000000000000000e+00
2.963404236080023111e+02	1.483281009001075290e+00	4.400000000000000000e+01	nan	nan	8.000000000000000000e+00	5.000000000000000000e+00	4.000000000000000000e+00
3.035269041460051085e+02	1.482512625996605493e+00	4.500000000000000000e+01	nan	nan	8.000000000000000000e+00	6.000000000000000000e+00	4.000000000000000000e+00
3.116434851849990082e+02	1.484362234004947823e+00	4.600000000000000000e+01	nan	nan	8.000000000000000000e+00	7.000000000000000000e+00	4.000000000000000000e+00
3.185060923940036446e+02	1.468314826001005713e+00	4.700000000000000000e+01	nan	nan	1.400000000000000000e+01	0.000000000000000000e+00	5.000000000000000000e+00
3.275690553230015212e+02	1.472551338003540877e+00	4.800000000000000000e+01	nan	nan	1.400000000000000000e+01	1.000000000000000000e+00	5.000000000000000000e+00
3.332951942319996306e+02	1.484820190999016631e+00	4.900000000000000000e+01	nan	nan	1.400000000000000000e+01	2.000000000000000000e+00	5.000000000000000000e+00
3.411004118060009205e+02	1.484540912999364082e+00	5.000000000000000000e+01	nan	nan	1.400000000000000000e+01	3.000000000000000000e+00	5.000000000000000000e+00
3.470700280710007064e+02	1.489454169997770805e+00	5.100000000000000000e+01	nan	nan	1.400000000000000000e+01	4.000000000000000000e+00	5.000000000000000000e+00
3.527295374310051557e+02	1.471297379997849930e+00	5.200000000000000000e+01	nan	nan	1.400000000000000000e+01	5.000000000000000000e+00	5.000000000000000000e+00
3.598824138120035059e+02	1.458080370997777209e+00	5.300000000000000000e+01	nan	nan	1.400000000000000000e+01	6.000000000000000000e+00	5.000000000000000000e+00
3.680815085350041045e+02	1.488466873001016211e+00	5.400000000000000000e+01	nan	nan	1.400000000000000000e+01	7.000000000000000000e+00	5.000000000000000000e+00
3.741732194380019791e+02	1.484709420001308899e+00	5.500000000000000000e+01	nan	nan	1.400000000000000000e+01	8.000000000000000000e+00	5.000000000000000000e+00
3.829278960860028747e+02	1.488637418995494954e+00	5.600000000000000000e+01	nan	nan	1.400000000000000000e+01	9.000000000000000000e+00	5.000000000000000000e+00
3.889519643829989946e+02	1.482392003003042191e+00	5.700000000000000000e+01	nan	nan	1.400000000000000000e+01	1.000000000000000000e+01	5.000000000000000000e+00
3.946045729270044831e+02	1.482769525995536242e+00	5.800000000000000000e+01	nan	nan	1.400000000000000000e+01	1.100000000000000000e+01	5.000000000000000000e+00
4.033401566300017294e+02	1.494932143003097735e+00	5.900000000000000000e+01	nan	nan	1.400000000000000000e+01	1.200000000000000000e+01	5.000000000000000000e+00
4.094346274950003135e+02	1.483447519000037573e+00	6.000000000000000000e+01	nan	nan	1.400000000000000000e+01	1.300000000000000000e+01	5.000000000000000000e+00
4.165851118300051894e+02	1.483879223000258207e+00	6.100000000000000000e+01	nan	nan	8.000000000000000000e+00	0.000000000000000000e+00	6.000000000000000000e+00
4.227203840240035788e+02	1.489088019996415824e+00	6.200000000000000000e+01	nan	nan	8.000000000000000000e+00	1.000000000000000000e+00	6.000000000000000000e+00
4.287483401760036941e+02	1.545338183001149446e+00	6.300000000000000000e+01	nan	nan	8.000000000000000000e+00	2.000000000000000000e+00	6.000000000000000000e+00
4.358501233510032762e+02	1.506855496998468880e+00	6.400000000000000000e+01	nan	nan	8.000000000000000000e+00	3.000000000000000000e+00	6.000000000000000000e+00
4.447736624489989481e+02	1.484399077002308331e+00	6.500000000000000000e+01	nan	nan	8.000000000000000000e+00	4.000000000000000000e+00	6.000000000000000000e+00
4.516599999480022234e+02	1.482735589997901116e+00	6.600000000000000000e+01	nan	nan	8.000000000000000000e+00	5.000000000000000000e+00	6.000000000000000000e+00
4.578977109460029169e+02	1.486026776001381222e+00	6.700000000000000000e+01	nan	nan	8.000000000000000000e+00	6.000000000000000000e+00	6.000000000000000000e+00
4.641215409370051930e+02	1.484516004995384719e+00	6.800000000000000000e+01	nan	nan	8.000000000000000000e+00	7.000000000000000000e+00	6.000000000000000000e+00
4.722515591940027662e+02	1.488909783998678904e+00	6.900000000000000000e+01	nan	nan	1.300000000000000000e+01	0.000000000000000000e+00	7.000000000000000000e+00
4.788579195320053259e+02	1.499424446999910288e+00	7.000000000000000000e+01	nan	nan	1.300000000000000000e+01	1.000000000000000000e+00	7.000000000000000000e+00
4.872433409209988895e+02	1.485862097004428506e+00	7.100000000000000000e+01	nan	nan	1.300000000000000000e+01	2.000000000000000000e+00	7.000000000000000000e+00
4.946695894340009545e+02	1.499750670001958497e+00	7.200000000000000000e+01	nan	nan	1.300000000000000000e+01	3.000000000000000000e+00	7.000000000000000000e+00
5.006674967690050835e+02	1.483241918998828623e+00	7.300000000000000000e+01	nan	nan	1.300000000000000000e+01	4.000000000000000000e+00	7.000000000000000000e+00
5.063520030150029925e+02	1.467953567000222392e+00	7.400000000000000000e+01	nan	nan	1.300000000000000000e+01	5.000000000000000000e+00	7.000000000000000000e+00
5.130406250420055585e+02	1.490111147999414243e+00	7.500000000000000000e+01	nan	nan	1.300000000000000000e+01	6.000000000000000000e+00	7.000000000000000000e+00
5.193483330829985789e+02	1.483920875005424023e+00	7.600000000000000000e+01	nan	nan	1.300000000000000000e+01	7.000000000000000000e+00	7.000000000000000000e+00
5.251509469230004470e+02	1.482308249003835954e+00	7.700000000000000000e+01	nan	nan	1.300000000000000000e+01	8.000000000000000000e+00	7.000000000000000000e+00
5.320184182119992329e+02	1.485052207004628144e+00	7.800000000000000000e+01	nan	nan	1.300000000000000000e+01	9.000000000000000000e+00	7.000000000000000000e+00
5.376720118619996356e+02	1.489354723998985719e+00	7.900000000000000000e+01	nan	nan	1.300000000000000000e+01	1.000000000000000000e+01	7.000000000000000000e+00
