stim_onset, stim_duration, trial_type, rt, accuracy, epoch_length,epoch_trial, epoch_number
1.388096809387207031e-02	1.499883890151977539e+00	0.000000000000000000e+00	4.561600685119628906e-01	0.000000000000000000e+00	9.000000000000000000e+00	3.000000000000000000e+00	1.800000000000000000e+01
1.062880301475524902e+01	1.500532865524291992e+00	1.000000000000000000e+00	4.969370365142822266e-01	0.000000000000000000e+00	9.000000000000000000e+00	4.000000000000000000e+00	1.800000000000000000e+01
1.734494805335998535e+01	1.499042034149169922e+00	2.000000000000000000e+00	4.976229667663574219e-01	0.000000000000000000e+00	9.000000000000000000e+00	5.000000000000000000e+00	1.800000000000000000e+01
2.402697396278381348e+01	1.499212980270385742e+00	3.000000000000000000e+00	4.244978427886962891e-01	1.000000000000000000e+00	9.000000000000000000e+00	6.000000000000000000e+00	1.800000000000000000e+01
3.222556686401367188e+01	1.500235080718994141e+00	4.000000000000000000e+00	5.066251754760742188e-01	0.000000000000000000e+00	9.000000000000000000e+00	7.000000000000000000e+00	1.800000000000000000e+01
4.139157795906066895e+01	1.499011039733886719e+00	5.000000000000000000e+00	5.121970176696777344e-01	0.000000000000000000e+00	9.000000000000000000e+00	8.000000000000000000e+00	1.800000000000000000e+01
5.055690503120422363e+01	1.499837875366210938e+00	6.000000000000000000e+00	4.606819152832031250e-01	0.000000000000000000e+00	7.000000000000000000e+00	0.000000000000000000e+00	1.900000000000000000e+01
5.840611886978149414e+01	1.499150037765502930e+00	7.000000000000000000e+00	4.733200073242187500e-01	1.000000000000000000e+00	7.000000000000000000e+00	1.000000000000000000e+00	1.900000000000000000e+01
6.525465393066406250e+01	1.499670982360839844e+00	8.000000000000000000e+00	3.985540866851806641e-01	1.000000000000000000e+00	7.000000000000000000e+00	2.000000000000000000e+00	1.900000000000000000e+01
7.232053709030151367e+01	1.499308824539184570e+00	9.000000000000000000e+00	4.226241111755371094e-01	1.000000000000000000e+00	7.000000000000000000e+00	3.000000000000000000e+00	1.900000000000000000e+01
7.961880302429199219e+01	1.500012874603271484e+00	1.000000000000000000e+01	5.229341983795166016e-01	1.000000000000000000e+00	7.000000000000000000e+00	4.000000000000000000e+00	1.900000000000000000e+01
8.733436298370361328e+01	1.500499963760375977e+00	1.100000000000000000e+01	5.380339622497558594e-01	0.000000000000000000e+00	7.000000000000000000e+00	5.000000000000000000e+00	1.900000000000000000e+01
9.361758208274841309e+01	1.498674869537353516e+00	1.200000000000000000e+01	5.316691398620605469e-01	1.000000000000000000e+00	7.000000000000000000e+00	6.000000000000000000e+00	1.900000000000000000e+01
1.006989629268646240e+02	1.500662088394165039e+00	1.300000000000000000e+01	4.240531921386718750e-01	0.000000000000000000e+00	1.600000000000000000e+01	0.000000000000000000e+00	2.000000000000000000e+01
1.071646640300750732e+02	1.500879049301147461e+00	1.400000000000000000e+01	4.200639724731445312e-01	0.000000000000000000e+00	1.600000000000000000e+01	1.000000000000000000e+00	2.000000000000000000e+01
1.158299748897552490e+02	1.500322103500366211e+00	1.500000000000000000e+01	4.766590595245361328e-01	1.000000000000000000e+00	1.600000000000000000e+01	2.000000000000000000e+00	2.000000000000000000e+01
1.215961048603057861e+02	1.500216007232666016e+00	1.600000000000000000e+01	5.392279624938964844e-01	1.000000000000000000e+00	1.600000000000000000e+01	3.000000000000000000e+00	2.000000000000000000e+01
1.279788880348205566e+02	1.500040054321289062e+00	1.700000000000000000e+01	5.093450546264648438e-01	1.000000000000000000e+00	1.600000000000000000e+01	4.000000000000000000e+00	2.000000000000000000e+01
1.350102648735046387e+02	1.500108003616333008e+00	1.800000000000000000e+01	4.798657894134521484e-01	1.000000000000000000e+00	1.600000000000000000e+01	5.000000000000000000e+00	2.000000000000000000e+01
1.481757869720458984e+02	1.499300956726074219e+00	1.900000000000000000e+01	5.098199844360351562e-01	1.000000000000000000e+00	1.600000000000000000e+01	6.000000000000000000e+00	2.000000000000000000e+01
1.560581760406494141e+02	1.500129938125610352e+00	2.000000000000000000e+01	4.792258739471435547e-01	1.000000000000000000e+00	1.600000000000000000e+01	7.000000000000000000e+00	2.000000000000000000e+01
1.624403989315032959e+02	1.499933958053588867e+00	2.100000000000000000e+01	5.588400363922119141e-01	1.000000000000000000e+00	1.600000000000000000e+01	8.000000000000000000e+00	2.000000000000000000e+01
1.693562469482421875e+02	1.486562967300415039e+00	2.200000000000000000e+01	4.897868633270263672e-01	1.000000000000000000e+00	1.600000000000000000e+01	9.000000000000000000e+00	2.000000000000000000e+01
1.750219769477844238e+02	1.500627994537353516e+00	2.300000000000000000e+01	6.848728656768798828e-01	0.000000000000000000e+00	1.600000000000000000e+01	1.000000000000000000e+01	2.000000000000000000e+01
1.806374509334564209e+02	1.500677108764648438e+00	2.400000000000000000e+01	5.171270370483398438e-01	1.000000000000000000e+00	1.600000000000000000e+01	1.100000000000000000e+01	2.000000000000000000e+01
1.882869288921356201e+02	1.499600172042846680e+00	2.500000000000000000e+01	4.723439216613769531e-01	1.000000000000000000e+00	1.600000000000000000e+01	1.200000000000000000e+01	2.000000000000000000e+01
1.986189169883728027e+02	1.499687910079956055e+00	2.600000000000000000e+01	4.480800628662109375e-01	1.000000000000000000e+00	1.600000000000000000e+01	1.300000000000000000e+01	2.000000000000000000e+01
2.041847810745239258e+02	1.499265909194946289e+00	2.700000000000000000e+01	5.709338188171386719e-01	1.000000000000000000e+00	1.600000000000000000e+01	1.400000000000000000e+01	2.000000000000000000e+01
2.113833649158477783e+02	1.499969005584716797e+00	2.800000000000000000e+01	4.483838081359863281e-01	1.000000000000000000e+00	1.600000000000000000e+01	1.500000000000000000e+01	2.000000000000000000e+01
2.198825130462646484e+02	1.500159978866577148e+00	2.900000000000000000e+01	4.719970226287841797e-01	0.000000000000000000e+00	1.000000000000000000e+01	0.000000000000000000e+00	2.100000000000000000e+01
2.275475790500640869e+02	1.500113964080810547e+00	3.000000000000000000e+01	4.804031848907470703e-01	0.000000000000000000e+00	1.000000000000000000e+01	1.000000000000000000e+00	2.100000000000000000e+01
2.393629539012908936e+02	1.499813079833984375e+00	3.100000000000000000e+01	4.939150810241699219e-01	1.000000000000000000e+00	1.000000000000000000e+01	2.000000000000000000e+00	2.100000000000000000e+01
2.465285770893096924e+02	1.499986886978149414e+00	3.200000000000000000e+01	5.009799003601074219e-01	1.000000000000000000e+00	1.000000000000000000e+01	3.000000000000000000e+00	2.100000000000000000e+01
2.554266738891601562e+02	1.499933004379272461e+00	3.300000000000000000e+01	5.205450057983398438e-01	1.000000000000000000e+00	1.000000000000000000e+01	4.000000000000000000e+00	2.100000000000000000e+01
2.652758319377899170e+02	1.499938011169433594e+00	3.400000000000000000e+01	5.373079776763916016e-01	1.000000000000000000e+00	1.000000000000000000e+01	5.000000000000000000e+00	2.100000000000000000e+01
2.711078779697418213e+02	1.500168085098266602e+00	3.500000000000000000e+01	4.949150085449218750e-01	1.000000000000000000e+00	1.000000000000000000e+01	6.000000000000000000e+00	2.100000000000000000e+01
2.790243549346923828e+02	1.499175071716308594e+00	3.600000000000000000e+01	4.462099075317382812e-01	0.000000000000000000e+00	1.000000000000000000e+01	7.000000000000000000e+00	2.100000000000000000e+01
2.901388258934020996e+02	1.499765157699584961e+00	3.700000000000000000e+01	4.405560493469238281e-01	1.000000000000000000e+00	1.000000000000000000e+01	8.000000000000000000e+00	2.100000000000000000e+01
2.985716018676757812e+02	1.498600006103515625e+00	3.800000000000000000e+01	4.773960113525390625e-01	1.000000000000000000e+00	1.000000000000000000e+01	9.000000000000000000e+00	2.100000000000000000e+01
3.056364979743957520e+02	1.500180959701538086e+00	3.900000000000000000e+01	5.194108486175537109e-01	0.000000000000000000e+00	1.300000000000000000e+01	0.000000000000000000e+00	2.200000000000000000e+01
3.172858569622039795e+02	1.499584913253784180e+00	4.000000000000000000e+01	5.036869049072265625e-01	0.000000000000000000e+00	1.300000000000000000e+01	1.000000000000000000e+00	2.200000000000000000e+01
3.245676949024200439e+02	1.498981952667236328e+00	4.100000000000000000e+01	5.104930400848388672e-01	1.000000000000000000e+00	1.300000000000000000e+01	2.000000000000000000e+00	2.200000000000000000e+01
3.308329999446868896e+02	1.500623941421508789e+00	4.200000000000000000e+01	4.392271041870117188e-01	1.000000000000000000e+00	1.300000000000000000e+01	3.000000000000000000e+00	2.200000000000000000e+01
3.365823369026184082e+02	1.500210046768188477e+00	4.300000000000000000e+01	4.594879150390625000e-01	0.000000000000000000e+00	1.300000000000000000e+01	4.000000000000000000e+00	2.200000000000000000e+01
3.537637679576873779e+02	1.499157905578613281e+00	4.400000000000000000e+01	4.566388130187988281e-01	1.000000000000000000e+00	1.300000000000000000e+01	5.000000000000000000e+00	2.200000000000000000e+01
3.624955449104309082e+02	1.499737977981567383e+00	4.500000000000000000e+01	5.064809322357177734e-01	1.000000000000000000e+00	1.300000000000000000e+01	6.000000000000000000e+00	2.200000000000000000e+01
3.701608459949493408e+02	1.500092029571533203e+00	4.600000000000000000e+01	4.610760211944580078e-01	1.000000000000000000e+00	1.300000000000000000e+01	7.000000000000000000e+00	2.200000000000000000e+01
3.761765229701995850e+02	1.499891996383666992e+00	4.700000000000000000e+01	5.811839103698730469e-01	1.000000000000000000e+00	1.300000000000000000e+01	8.000000000000000000e+00	2.200000000000000000e+01
3.839754090309143066e+02	1.499449968338012695e+00	4.800000000000000000e+01	4.640460014343261719e-01	1.000000000000000000e+00	1.300000000000000000e+01	9.000000000000000000e+00	2.200000000000000000e+01
3.949065570831298828e+02	1.500285863876342773e+00	4.900000000000000000e+01	4.735407829284667969e-01	1.000000000000000000e+00	1.300000000000000000e+01	1.000000000000000000e+01	2.200000000000000000e+01
4.055555770397186279e+02	1.500296831130981445e+00	5.000000000000000000e+01	5.071189403533935547e-01	1.000000000000000000e+00	1.300000000000000000e+01	1.100000000000000000e+01	2.200000000000000000e+01
4.151043548583984375e+02	1.500380039215087891e+00	5.100000000000000000e+01	5.031170845031738281e-01	1.000000000000000000e+00	1.300000000000000000e+01	1.200000000000000000e+01	2.200000000000000000e+01
4.267862858772277832e+02	1.500022172927856445e+00	5.200000000000000000e+01	5.338370800018310547e-01	0.000000000000000000e+00	1.000000000000000000e+01	0.000000000000000000e+00	2.300000000000000000e+01
4.349187378883361816e+02	1.499909162521362305e+00	5.300000000000000000e+01	4.670681953430175781e-01	0.000000000000000000e+00	1.000000000000000000e+01	1.000000000000000000e+00	2.300000000000000000e+01
4.417168729305267334e+02	1.499812126159667969e+00	5.400000000000000000e+01	5.306580066680908203e-01	1.000000000000000000e+00	1.000000000000000000e+01	2.000000000000000000e+00	2.300000000000000000e+01
4.480495650768280029e+02	1.500687837600708008e+00	5.500000000000000000e+01	5.009889602661132812e-01	1.000000000000000000e+00	1.000000000000000000e+01	3.000000000000000000e+00	2.300000000000000000e+01
4.596979398727416992e+02	1.500292062759399414e+00	5.600000000000000000e+01	4.729890823364257812e-01	1.000000000000000000e+00	1.000000000000000000e+01	4.000000000000000000e+00	2.300000000000000000e+01
4.706963789463043213e+02	1.499958992004394531e+00	5.700000000000000000e+01	6.285240650177001953e-01	1.000000000000000000e+00	1.000000000000000000e+01	5.000000000000000000e+00	2.300000000000000000e+01
4.790961339473724365e+02	1.499185085296630859e+00	5.800000000000000000e+01	4.663619995117187500e-01	1.000000000000000000e+00	1.000000000000000000e+01	6.000000000000000000e+00	2.300000000000000000e+01
4.871609370708465576e+02	1.499718904495239258e+00	5.900000000000000000e+01	4.502329826354980469e-01	1.000000000000000000e+00	1.000000000000000000e+01	7.000000000000000000e+00	2.300000000000000000e+01
