stim_onset, stim_duration, trial_type, rt, accuracy, epoch_length,epoch_trial, epoch_number
1.273393630981445312e-02	1.500593900680541992e+00	0.000000000000000000e+00	4.255459308624267578e-01	1.000000000000000000e+00	1.000000000000000000e+01	8.000000000000000000e+00	2.300000000000000000e+01
6.761708974838256836e+00	1.500162839889526367e+00	1.000000000000000000e+00	4.435088634490966797e-01	0.000000000000000000e+00	1.000000000000000000e+01	9.000000000000000000e+00	2.300000000000000000e+01
1.241117191314697266e+01	1.499599933624267578e+00	2.000000000000000000e+00	4.646451473236083984e-01	1.000000000000000000e+00	1.200000000000000000e+01	0.000000000000000000e+00	2.400000000000000000e+01
2.054351782798767090e+01	1.498995065689086914e+00	3.000000000000000000e+00	4.820649623870849609e-01	1.000000000000000000e+00	1.200000000000000000e+01	1.000000000000000000e+00	2.400000000000000000e+01
2.654214501380920410e+01	1.500072956085205078e+00	4.000000000000000000e+00	4.952659606933593750e-01	0.000000000000000000e+00	1.200000000000000000e+01	2.000000000000000000e+00	2.400000000000000000e+01
3.209123086929321289e+01	1.500463008880615234e+00	5.000000000000000000e+00	5.020930767059326172e-01	0.000000000000000000e+00	1.200000000000000000e+01	3.000000000000000000e+00	2.400000000000000000e+01
3.889042901992797852e+01	1.499897956848144531e+00	6.000000000000000000e+00	4.484620094299316406e-01	0.000000000000000000e+00	1.200000000000000000e+01	4.000000000000000000e+00	2.400000000000000000e+01
4.948967289924621582e+01	1.499488115310668945e+00	7.000000000000000000e+00	5.329132080078125000e-01	0.000000000000000000e+00	1.200000000000000000e+01	5.000000000000000000e+00	2.400000000000000000e+01
5.708809089660644531e+01	1.499449968338012695e+00	8.000000000000000000e+00	4.573190212249755859e-01	0.000000000000000000e+00	1.200000000000000000e+01	6.000000000000000000e+00	2.400000000000000000e+01
6.920251893997192383e+01	1.500850915908813477e+00	9.000000000000000000e+00	5.176649093627929688e-01	0.000000000000000000e+00	1.200000000000000000e+01	7.000000000000000000e+00	2.400000000000000000e+01
7.478590798377990723e+01	1.499505996704101562e+00	1.000000000000000000e+01	5.409848690032958984e-01	0.000000000000000000e+00	1.200000000000000000e+01	8.000000000000000000e+00	2.400000000000000000e+01
8.188429784774780273e+01	1.499642133712768555e+00	1.100000000000000000e+01	5.075299739837646484e-01	1.000000000000000000e+00	1.200000000000000000e+01	9.000000000000000000e+00	2.400000000000000000e+01
8.998347496986389160e+01	1.500360012054443359e+00	1.200000000000000000e+01	4.670350551605224609e-01	0.000000000000000000e+00	1.200000000000000000e+01	1.000000000000000000e+01	2.400000000000000000e+01
1.026978199481964111e+02	1.500130891799926758e+00	1.300000000000000000e+01	4.873569011688232422e-01	1.000000000000000000e+00	1.200000000000000000e+01	1.100000000000000000e+01	2.400000000000000000e+01
1.123796918392181396e+02	1.500415086746215820e+00	1.400000000000000000e+01	5.262098312377929688e-01	0.000000000000000000e+00	7.000000000000000000e+00	0.000000000000000000e+00	2.500000000000000000e+01
1.191793398857116699e+02	1.500231981277465820e+00	1.500000000000000000e+01	6.161711215972900391e-01	0.000000000000000000e+00	7.000000000000000000e+00	1.000000000000000000e+00	2.500000000000000000e+01
1.289441549777984619e+02	1.499814033508300781e+00	1.600000000000000000e+01	4.793398380279541016e-01	0.000000000000000000e+00	7.000000000000000000e+00	2.000000000000000000e+00	2.500000000000000000e+01
1.366593129634857178e+02	1.500238895416259766e+00	1.700000000000000000e+01	4.587531089782714844e-01	0.000000000000000000e+00	7.000000000000000000e+00	3.000000000000000000e+00	2.500000000000000000e+01
1.433255579471588135e+02	1.500351905822753906e+00	1.800000000000000000e+01	4.103810787200927734e-01	1.000000000000000000e+00	7.000000000000000000e+00	4.000000000000000000e+00	2.500000000000000000e+01
1.495909788608551025e+02	1.500303030014038086e+00	1.900000000000000000e+01	4.405460357666015625e-01	0.000000000000000000e+00	7.000000000000000000e+00	5.000000000000000000e+00	2.500000000000000000e+01
1.575236408710479736e+02	1.499869108200073242e+00	2.000000000000000000e+01	4.587290287017822266e-01	0.000000000000000000e+00	7.000000000000000000e+00	6.000000000000000000e+00	2.500000000000000000e+01
1.635058929920196533e+02	1.500174999237060547e+00	2.100000000000000000e+01	5.252130031585693359e-01	0.000000000000000000e+00	7.000000000000000000e+00	0.000000000000000000e+00	2.600000000000000000e+01
1.795042028427124023e+02	1.499510049819946289e+00	2.200000000000000000e+01	4.887471199035644531e-01	1.000000000000000000e+00	7.000000000000000000e+00	1.000000000000000000e+00	2.600000000000000000e+01
1.917188358306884766e+02	1.499891996383666992e+00	2.300000000000000000e+01	4.316859245300292969e-01	0.000000000000000000e+00	7.000000000000000000e+00	2.000000000000000000e+00	2.600000000000000000e+01
1.987673969268798828e+02	1.500770092010498047e+00	2.400000000000000000e+01	5.087161064147949219e-01	0.000000000000000000e+00	7.000000000000000000e+00	3.000000000000000000e+00	2.600000000000000000e+01
2.076832900047302246e+02	1.499982833862304688e+00	2.500000000000000000e+01	4.814569950103759766e-01	0.000000000000000000e+00	7.000000000000000000e+00	4.000000000000000000e+00	2.600000000000000000e+01
2.132992730140686035e+02	1.499715805053710938e+00	2.600000000000000000e+01	6.175179481506347656e-01	0.000000000000000000e+00	7.000000000000000000e+00	5.000000000000000000e+00	2.600000000000000000e+01
2.246307318210601807e+02	1.499857187271118164e+00	2.700000000000000000e+01	4.385280609130859375e-01	0.000000000000000000e+00	7.000000000000000000e+00	6.000000000000000000e+00	2.600000000000000000e+01
2.328298559188842773e+02	1.500076055526733398e+00	2.800000000000000000e+01	4.472079277038574219e-01	1.000000000000000000e+00	1.500000000000000000e+01	0.000000000000000000e+00	2.700000000000000000e+01
2.400291779041290283e+02	1.499978065490722656e+00	2.900000000000000000e+01	4.426100254058837891e-01	1.000000000000000000e+00	1.500000000000000000e+01	1.000000000000000000e+00	2.700000000000000000e+01
2.459773800373077393e+02	1.500307798385620117e+00	3.000000000000000000e+01	4.423329830169677734e-01	0.000000000000000000e+00	1.500000000000000000e+01	2.000000000000000000e+00	2.700000000000000000e+01
2.525767288208007812e+02	1.500300168991088867e+00	3.100000000000000000e+01	4.346740245819091797e-01	0.000000000000000000e+00	1.500000000000000000e+01	3.000000000000000000e+00	2.700000000000000000e+01
2.650915679931640625e+02	1.500566005706787109e+00	3.200000000000000000e+01	4.204199314117431641e-01	0.000000000000000000e+00	1.500000000000000000e+01	4.000000000000000000e+00	2.700000000000000000e+01
2.721571869850158691e+02	1.499889850616455078e+00	3.300000000000000000e+01	5.288369655609130859e-01	0.000000000000000000e+00	1.500000000000000000e+01	5.000000000000000000e+00	2.700000000000000000e+01
2.802893610000610352e+02	1.499505996704101562e+00	3.400000000000000000e+01	4.601321220397949219e-01	0.000000000000000000e+00	1.500000000000000000e+01	6.000000000000000000e+00	2.700000000000000000e+01
2.858725788593292236e+02	1.498808145523071289e+00	3.500000000000000000e+01	4.526789188385009766e-01	0.000000000000000000e+00	1.500000000000000000e+01	7.000000000000000000e+00	2.700000000000000000e+01
2.927046179771423340e+02	1.499994993209838867e+00	3.600000000000000000e+01	4.596178531646728516e-01	0.000000000000000000e+00	1.500000000000000000e+01	8.000000000000000000e+00	2.700000000000000000e+01
3.003700609207153320e+02	1.499740123748779297e+00	3.700000000000000000e+01	4.358561038970947266e-01	0.000000000000000000e+00	1.500000000000000000e+01	9.000000000000000000e+00	2.700000000000000000e+01
3.143344728946685791e+02	1.499931097030639648e+00	3.800000000000000000e+01	4.861979484558105469e-01	0.000000000000000000e+00	1.500000000000000000e+01	1.000000000000000000e+01	2.700000000000000000e+01
3.205668318271636963e+02	1.500140190124511719e+00	3.900000000000000000e+01	5.215098857879638672e-01	1.000000000000000000e+00	1.500000000000000000e+01	1.100000000000000000e+01	2.700000000000000000e+01
3.272161188125610352e+02	1.500042200088500977e+00	4.000000000000000000e+01	4.349999427795410156e-01	1.000000000000000000e+00	1.500000000000000000e+01	1.200000000000000000e+01	2.700000000000000000e+01
3.354150519371032715e+02	1.499707937240600586e+00	4.100000000000000000e+01	4.128298759460449219e-01	1.000000000000000000e+00	1.500000000000000000e+01	1.300000000000000000e+01	2.700000000000000000e+01
3.507128758430480957e+02	1.499636173248291016e+00	4.200000000000000000e+01	4.317789077758789062e-01	1.000000000000000000e+00	1.500000000000000000e+01	1.400000000000000000e+01	2.700000000000000000e+01
3.572119610309600830e+02	1.500110864639282227e+00	4.300000000000000000e+01	4.993350505828857422e-01	0.000000000000000000e+00	1.100000000000000000e+01	0.000000000000000000e+00	2.800000000000000000e+01
3.655280208587646484e+02	1.499144077301025391e+00	4.400000000000000000e+01	4.289689064025878906e-01	0.000000000000000000e+00	1.100000000000000000e+01	1.000000000000000000e+00	2.800000000000000000e+01
3.714095740318298340e+02	1.500010967254638672e+00	4.500000000000000000e+01	4.523801803588867188e-01	0.000000000000000000e+00	1.100000000000000000e+01	2.000000000000000000e+00	2.800000000000000000e+01
3.781086528301239014e+02	1.500341176986694336e+00	4.600000000000000000e+01	4.541168212890625000e-01	0.000000000000000000e+00	1.100000000000000000e+01	3.000000000000000000e+00	2.800000000000000000e+01
3.890067598819732666e+02	1.500388145446777344e+00	4.700000000000000000e+01	4.926750659942626953e-01	0.000000000000000000e+00	1.100000000000000000e+01	4.000000000000000000e+00	2.800000000000000000e+01
4.055883109569549561e+02	1.499840021133422852e+00	4.800000000000000000e+01	4.688789844512939453e-01	1.000000000000000000e+00	1.100000000000000000e+01	5.000000000000000000e+00	2.800000000000000000e+01
4.140703139305114746e+02	1.500262022018432617e+00	4.900000000000000000e+01	4.712228775024414062e-01	0.000000000000000000e+00	1.100000000000000000e+01	6.000000000000000000e+00	2.800000000000000000e+01
4.213859159946441650e+02	1.499541997909545898e+00	5.000000000000000000e+01	4.494149684906005859e-01	0.000000000000000000e+00	1.100000000000000000e+01	7.000000000000000000e+00	2.800000000000000000e+01
4.297017018795013428e+02	1.499877929687500000e+00	5.100000000000000000e+01	4.234538078308105469e-01	0.000000000000000000e+00	1.100000000000000000e+01	8.000000000000000000e+00	2.800000000000000000e+01
4.432994029521942139e+02	1.499721050262451172e+00	5.200000000000000000e+01	4.841651916503906250e-01	0.000000000000000000e+00	1.100000000000000000e+01	9.000000000000000000e+00	2.800000000000000000e+01
4.547647080421447754e+02	1.486569881439208984e+00	5.300000000000000000e+01	4.636380672454833984e-01	0.000000000000000000e+00	1.100000000000000000e+01	1.000000000000000000e+01	2.800000000000000000e+01
4.607476840019226074e+02	1.499605894088745117e+00	5.400000000000000000e+01	4.965691566467285156e-01	1.000000000000000000e+00	6.000000000000000000e+00	0.000000000000000000e+00	2.900000000000000000e+01
4.685957958698272705e+02	1.500535964965820312e+00	5.500000000000000000e+01	5.121281147003173828e-01	1.000000000000000000e+00	6.000000000000000000e+00	1.000000000000000000e+00	2.900000000000000000e+01
4.761279599666595459e+02	1.500158071517944336e+00	5.600000000000000000e+01	5.056459903717041016e-01	0.000000000000000000e+00	6.000000000000000000e+00	2.000000000000000000e+00	2.900000000000000000e+01
4.904763638973236084e+02	1.499813079833984375e+00	5.700000000000000000e+01	5.569889545440673828e-01	0.000000000000000000e+00	6.000000000000000000e+00	3.000000000000000000e+00	2.900000000000000000e+01
4.962760820388793945e+02	1.498636960983276367e+00	5.800000000000000000e+01	4.798858165740966797e-01	0.000000000000000000e+00	6.000000000000000000e+00	4.000000000000000000e+00	2.900000000000000000e+01
5.067240688800811768e+02	1.499711036682128906e+00	5.900000000000000000e+01	5.354869365692138672e-01	0.000000000000000000e+00	6.000000000000000000e+00	5.000000000000000000e+00	2.900000000000000000e+01
