stim_onset, stim_duration, trial_type, rt, accuracy, epoch_length,epoch_trial, epoch_number
1.135087013244628906e-02	1.500017166137695312e+00	0.000000000000000000e+00	4.768049716949462891e-01	1.000000000000000000e+00	1.300000000000000000e+01	0.000000000000000000e+00	2.300000000000000000e+01
8.360369920730590820e+00	1.499408006668090820e+00	1.000000000000000000e+00	5.184788703918457031e-01	1.000000000000000000e+00	1.300000000000000000e+01	1.000000000000000000e+00	2.300000000000000000e+01
1.639255189895629883e+01	1.487614154815673828e+00	2.000000000000000000e+00	5.209579467773437500e-01	1.000000000000000000e+00	1.300000000000000000e+01	2.000000000000000000e+00	2.300000000000000000e+01
2.707429790496826172e+01	1.500504970550537109e+00	3.000000000000000000e+00	6.002519130706787109e-01	1.000000000000000000e+00	1.300000000000000000e+01	3.000000000000000000e+00	2.300000000000000000e+01
3.797273993492126465e+01	1.499606132507324219e+00	4.000000000000000000e+00	4.472589492797851562e-01	1.000000000000000000e+00	1.300000000000000000e+01	4.000000000000000000e+00	2.300000000000000000e+01
4.773811602592468262e+01	1.500602960586547852e+00	5.000000000000000000e+00	5.145640373229980469e-01	1.000000000000000000e+00	1.300000000000000000e+01	5.000000000000000000e+00	2.300000000000000000e+01
5.736982107162475586e+01	1.488160848617553711e+00	6.000000000000000000e+00	4.197361469268798828e-01	1.000000000000000000e+00	1.300000000000000000e+01	6.000000000000000000e+00	2.300000000000000000e+01
6.523585796356201172e+01	1.487600088119506836e+00	7.000000000000000000e+00	4.534540176391601562e-01	0.000000000000000000e+00	1.300000000000000000e+01	7.000000000000000000e+00	2.300000000000000000e+01
7.313539004325866699e+01	1.498473882675170898e+00	8.000000000000000000e+00	nan	nan	1.300000000000000000e+01	8.000000000000000000e+00	2.300000000000000000e+01
8.078360486030578613e+01	1.488385200500488281e+00	9.000000000000000000e+00	4.671990871429443359e-01	1.000000000000000000e+00	1.300000000000000000e+01	9.000000000000000000e+00	2.300000000000000000e+01
9.051547098159790039e+01	1.499831914901733398e+00	1.000000000000000000e+01	6.291389465332031250e-01	1.000000000000000000e+00	1.300000000000000000e+01	1.000000000000000000e+01	2.300000000000000000e+01
9.836479496955871582e+01	1.498801946640014648e+00	1.100000000000000000e+01	5.486028194427490234e-01	0.000000000000000000e+00	1.300000000000000000e+01	1.100000000000000000e+01	2.300000000000000000e+01
1.069137930870056152e+02	1.499691963195800781e+00	1.200000000000000000e+01	5.953791141510009766e-01	1.000000000000000000e+00	1.300000000000000000e+01	1.200000000000000000e+01	2.300000000000000000e+01
1.159453148841857910e+02	1.488284111022949219e+00	1.300000000000000000e+01	4.926869869232177734e-01	1.000000000000000000e+00	9.000000000000000000e+00	0.000000000000000000e+00	2.400000000000000000e+01
1.257939698696136475e+02	1.500277042388916016e+00	1.400000000000000000e+01	4.344749450683593750e-01	1.000000000000000000e+00	9.000000000000000000e+00	1.000000000000000000e+00	2.400000000000000000e+01
1.341261720657348633e+02	1.500078916549682617e+00	1.500000000000000000e+01	4.603497982025146484e-01	1.000000000000000000e+00	9.000000000000000000e+00	2.000000000000000000e+00	2.400000000000000000e+01
1.444421398639678955e+02	1.499305009841918945e+00	1.600000000000000000e+01	4.779400825500488281e-01	1.000000000000000000e+00	9.000000000000000000e+00	3.000000000000000000e+00	2.400000000000000000e+01
1.526231179237365723e+02	1.488574981689453125e+00	1.700000000000000000e+01	4.327971935272216797e-01	1.000000000000000000e+00	9.000000000000000000e+00	4.000000000000000000e+00	2.400000000000000000e+01
1.639219520092010498e+02	1.499340057373046875e+00	1.800000000000000000e+01	4.667479991912841797e-01	1.000000000000000000e+00	9.000000000000000000e+00	5.000000000000000000e+00	2.400000000000000000e+01
1.722715339660644531e+02	1.499172925949096680e+00	1.900000000000000000e+01	5.106999874114990234e-01	1.000000000000000000e+00	9.000000000000000000e+00	6.000000000000000000e+00	2.400000000000000000e+01
1.804189798831939697e+02	1.500723123550415039e+00	2.000000000000000000e+01	4.372971057891845703e-01	1.000000000000000000e+00	9.000000000000000000e+00	7.000000000000000000e+00	2.400000000000000000e+01
1.886852250099182129e+02	1.500267982482910156e+00	2.100000000000000000e+01	4.587359428405761719e-01	0.000000000000000000e+00	9.000000000000000000e+00	8.000000000000000000e+00	2.400000000000000000e+01
1.964170799255371094e+02	1.501074075698852539e+00	2.200000000000000000e+01	4.607861042022705078e-01	0.000000000000000000e+00	9.000000000000000000e+00	0.000000000000000000e+00	2.500000000000000000e+01
2.042000958919525146e+02	1.499315023422241211e+00	2.300000000000000000e+01	4.204080104827880859e-01	1.000000000000000000e+00	9.000000000000000000e+00	1.000000000000000000e+00	2.500000000000000000e+01
2.128325290679931641e+02	1.499110937118530273e+00	2.400000000000000000e+01	5.218930244445800781e-01	1.000000000000000000e+00	9.000000000000000000e+00	2.000000000000000000e+00	2.500000000000000000e+01
2.215806620121002197e+02	1.488206863403320312e+00	2.500000000000000000e+01	5.233771800994873047e-01	1.000000000000000000e+00	9.000000000000000000e+00	3.000000000000000000e+00	2.500000000000000000e+01
2.292970628738403320e+02	1.499013185501098633e+00	2.600000000000000000e+01	5.856480598449707031e-01	1.000000000000000000e+00	9.000000000000000000e+00	4.000000000000000000e+00	2.500000000000000000e+01
2.383450720310211182e+02	1.500283956527709961e+00	2.700000000000000000e+01	4.327070713043212891e-01	0.000000000000000000e+00	9.000000000000000000e+00	5.000000000000000000e+00	2.500000000000000000e+01
2.470605669021606445e+02	1.487827062606811523e+00	2.800000000000000000e+01	5.898058414459228516e-01	0.000000000000000000e+00	9.000000000000000000e+00	6.000000000000000000e+00	2.500000000000000000e+01
2.564091339111328125e+02	1.488358974456787109e+00	2.900000000000000000e+01	4.187829494476318359e-01	0.000000000000000000e+00	9.000000000000000000e+00	7.000000000000000000e+00	2.500000000000000000e+01
2.644745159149169922e+02	1.499915122985839844e+00	3.000000000000000000e+01	5.183060169219970703e-01	0.000000000000000000e+00	9.000000000000000000e+00	8.000000000000000000e+00	2.500000000000000000e+01
2.728234660625457764e+02	1.488631963729858398e+00	3.100000000000000000e+01	6.391282081604003906e-01	0.000000000000000000e+00	8.000000000000000000e+00	0.000000000000000000e+00	2.600000000000000000e+01
2.823056640625000000e+02	1.499939918518066406e+00	3.200000000000000000e+01	6.187200546264648438e-01	0.000000000000000000e+00	8.000000000000000000e+00	1.000000000000000000e+00	2.600000000000000000e+01
2.921537129878997803e+02	1.488341093063354492e+00	3.300000000000000000e+01	6.152069568634033203e-01	0.000000000000000000e+00	8.000000000000000000e+00	2.000000000000000000e+00	2.600000000000000000e+01
3.002697119712829590e+02	1.487653017044067383e+00	3.400000000000000000e+01	4.766380786895751953e-01	1.000000000000000000e+00	8.000000000000000000e+00	3.000000000000000000e+00	2.600000000000000000e+01
3.079189488887786865e+02	1.499639987945556641e+00	3.500000000000000000e+01	3.955421447753906250e-01	1.000000000000000000e+00	8.000000000000000000e+00	4.000000000000000000e+00	2.600000000000000000e+01
3.164340629577636719e+02	1.500294923782348633e+00	3.600000000000000000e+01	4.504120349884033203e-01	1.000000000000000000e+00	8.000000000000000000e+00	5.000000000000000000e+00	2.600000000000000000e+01
3.253323099613189697e+02	1.488380908966064453e+00	3.700000000000000000e+01	nan	nan	8.000000000000000000e+00	6.000000000000000000e+00	2.600000000000000000e+01
3.330486710071563721e+02	1.488184928894042969e+00	3.800000000000000000e+01	3.922550678253173828e-01	1.000000000000000000e+00	8.000000000000000000e+00	7.000000000000000000e+00	2.600000000000000000e+01
3.413804759979248047e+02	1.500295877456665039e+00	3.900000000000000000e+01	5.304131507873535156e-01	0.000000000000000000e+00	7.000000000000000000e+00	0.000000000000000000e+00	2.700000000000000000e+01
3.499294838905334473e+02	1.500056028366088867e+00	4.000000000000000000e+01	5.169680118560791016e-01	0.000000000000000000e+00	7.000000000000000000e+00	1.000000000000000000e+00	2.700000000000000000e+01
3.594279060363769531e+02	1.499924898147583008e+00	4.100000000000000000e+01	5.713880062103271484e-01	0.000000000000000000e+00	7.000000000000000000e+00	2.000000000000000000e+00	2.700000000000000000e+01
3.692941648960113525e+02	1.498511075973510742e+00	4.200000000000000000e+01	6.287229061126708984e-01	1.000000000000000000e+00	7.000000000000000000e+00	3.000000000000000000e+00	2.700000000000000000e+01
3.775755600929260254e+02	1.500476837158203125e+00	4.300000000000000000e+01	5.512440204620361328e-01	1.000000000000000000e+00	7.000000000000000000e+00	4.000000000000000000e+00	2.700000000000000000e+01
3.875740559101104736e+02	1.500185966491699219e+00	4.400000000000000000e+01	5.203750133514404297e-01	1.000000000000000000e+00	7.000000000000000000e+00	5.000000000000000000e+00	2.700000000000000000e+01
3.968228058815002441e+02	1.487698078155517578e+00	4.500000000000000000e+01	4.934380054473876953e-01	1.000000000000000000e+00	7.000000000000000000e+00	6.000000000000000000e+00	2.700000000000000000e+01
4.069713029861450195e+02	1.488302946090698242e+00	4.600000000000000000e+01	5.566709041595458984e-01	1.000000000000000000e+00	6.000000000000000000e+00	0.000000000000000000e+00	2.800000000000000000e+01
4.158862009048461914e+02	1.488826036453247070e+00	4.700000000000000000e+01	5.125820636749267578e-01	1.000000000000000000e+00	6.000000000000000000e+00	1.000000000000000000e+00	2.800000000000000000e+01
4.270185379981994629e+02	1.488152980804443359e+00	4.800000000000000000e+01	4.690918922424316406e-01	1.000000000000000000e+00	6.000000000000000000e+00	2.000000000000000000e+00	2.800000000000000000e+01
4.348018279075622559e+02	1.498686075210571289e+00	4.900000000000000000e+01	5.044069290161132812e-01	1.000000000000000000e+00	6.000000000000000000e+00	3.000000000000000000e+00	2.800000000000000000e+01
4.446831500530242920e+02	1.499326944351196289e+00	5.000000000000000000e+01	4.528241157531738281e-01	1.000000000000000000e+00	6.000000000000000000e+00	4.000000000000000000e+00	2.800000000000000000e+01
4.527318708896636963e+02	1.499969005584716797e+00	5.100000000000000000e+01	5.329248905181884766e-01	0.000000000000000000e+00	6.000000000000000000e+00	5.000000000000000000e+00	2.800000000000000000e+01
4.604139778614044189e+02	1.500266075134277344e+00	5.200000000000000000e+01	5.233929157257080078e-01	0.000000000000000000e+00	1.200000000000000000e+01	0.000000000000000000e+00	2.900000000000000000e+01
4.696129980087280273e+02	1.499023914337158203e+00	5.300000000000000000e+01	5.421388149261474609e-01	0.000000000000000000e+00	1.200000000000000000e+01	1.000000000000000000e+00	2.900000000000000000e+01
4.799119429588317871e+02	1.498834133148193359e+00	5.400000000000000000e+01	6.730952262878417969e-01	0.000000000000000000e+00	1.200000000000000000e+01	2.000000000000000000e+00	2.900000000000000000e+01
4.880769779682159424e+02	1.487781047821044922e+00	5.500000000000000000e+01	6.168470382690429688e-01	1.000000000000000000e+00	1.200000000000000000e+01	3.000000000000000000e+00	2.900000000000000000e+01
4.989083318710327148e+02	1.488772153854370117e+00	5.600000000000000000e+01	4.650039672851562500e-01	0.000000000000000000e+00	1.200000000000000000e+01	4.000000000000000000e+00	2.900000000000000000e+01
5.069742889404296875e+02	1.487334966659545898e+00	5.700000000000000000e+01	5.428969860076904297e-01	0.000000000000000000e+00	1.200000000000000000e+01	5.000000000000000000e+00	2.900000000000000000e+01
5.146899499893188477e+02	1.499787092208862305e+00	5.800000000000000000e+01	4.280278682708740234e-01	0.000000000000000000e+00	1.200000000000000000e+01	6.000000000000000000e+00	2.900000000000000000e+01
5.255054318904876709e+02	1.499402999877929688e+00	5.900000000000000000e+01	5.313251018524169922e-01	1.000000000000000000e+00	1.200000000000000000e+01	7.000000000000000000e+00	2.900000000000000000e+01
