reward_code,subj_id,condition,trial,epoch_trial,epoch_number,button_press,LR_solution,LR,reward,p_accuracy,rt,trial_end,iti_length,iti_end,stim_onset,session_n,run_n
4.0,813.0,7520.0,0.0,16.0,11.0,0.4881720542907715,82.0,76.0,0.0,0.0,0.4764149188995361,1.5124850273132324,6.830602832,8.343087859313233,0.01174306869506836,8,4
4.0,813.0,7520.0,1.0,17.0,11.0,8.823915004730225,76.0,76.0,0.0,1.0,0.4626030921936035,9.86123514175415,6.510286276,16.371521417754153,8.361341953277588,8,4
4.0,813.0,7520.0,2.0,18.0,11.0,16.83273196220398,82.0,76.0,0.0,0.0,0.439744234085083,17.893177032470703,9.176654879,27.069831911470704,16.392977952957153,8,4
4.0,813.0,7520.0,3.0,19.0,11.0,27.51016592979431,76.0,82.0,0.0,0.0,0.4181861877441406,28.579590082168576,9.379149067,37.95873914916858,27.091972112655643,8,4
4.0,813.0,7520.0,4.0,20.0,11.0,38.49585509300232,76.0,76.0,3.0,1.0,0.5057430267333984,39.4772469997406,8.249659814999998,47.7269068147406,37.99010610580444,8,4
4.0,813.0,7520.0,5.0,21.0,11.0,48.31555604934692,76.0,82.0,0.0,0.0,0.5600268840789795,49.254944086074815,8.106125763999998,57.36106985007481,47.75552105903625,8,4
4.0,813.0,7520.0,6.0,22.0,11.0,57.835495948791504,82.0,82.0,3.0,1.0,0.44839906692504883,58.875782012939446,6.351721296999999,65.22750330993945,57.387094020843506,8,4
4.0,813.0,7520.0,7.0,0.0,12.0,65.94309592247009,76.0,76.0,3.0,1.0,0.6906139850616456,66.74066209793091,6.394658274,73.1353203719309,65.2524790763855,8,4
4.0,813.0,7520.0,8.0,1.0,12.0,73.63392806053162,76.0,76.0,2.0,1.0,0.4822230339050292,74.65089106559755,6.118962944999999,80.76985401059754,73.15170192718504,8,4
4.0,813.0,7520.0,9.0,2.0,12.0,81.18272113800049,82.0,82.0,2.0,1.0,0.3818140029907226,82.28874111175539,8.225208136,90.51394924775539,80.80090594291687,8,4
4.0,813.0,7520.0,10.0,3.0,12.0,91.00313210487363,76.0,76.0,2.0,1.0,0.4706771373748779,92.03279304504395,6.317521856,98.35031490104394,90.53244614601137,8,4
4.0,813.0,7520.0,11.0,4.0,12.0,98.84313511848448,76.0,76.0,3.0,1.0,0.4610531330108643,99.86899209022522,7.028919837999999,106.89791192822521,98.38207292556761,8,4
4.0,813.0,7520.0,12.0,5.0,12.0,107.36870098114012,82.0,82.0,3.0,1.0,0.4546189308166504,108.41408014297485,7.501984415,115.91606455797485,106.91407799720766,8,4
4.0,813.0,7520.0,13.0,6.0,12.0,116.41147994995119,82.0,82.0,4.0,1.0,0.4664399623870849,117.4336440563202,8.342266416000001,125.7759104723202,115.94503808021545,8,4
4.0,813.0,7520.0,14.0,7.0,12.0,126.24221801757811,76.0,76.0,1.0,1.0,0.44806599617004406,127.29469799995422,6.807756658,134.1024546579542,125.79415011405946,8,4
4.0,813.0,7520.0,15.0,8.0,12.0,134.59995698928833,82.0,76.0,1.0,0.0,0.4737648963928224,135.62616205215454,8.796708647,144.42287069915454,134.12618494033813,8,4
4.0,813.0,7520.0,16.0,9.0,12.0,144.82455801963803,82.0,82.0,0.0,1.0,0.3831470012664794,145.9411289691925,6.660214379000001,152.6013433481925,144.4414069652557,8,4
4.0,813.0,7520.0,17.0,10.0,12.0,153.08320808410645,82.0,82.0,1.0,1.0,0.4600019454956055,154.11173605918884,9.794354736,163.90609079518885,152.62320399284363,8,4
4.0,813.0,7520.0,18.0,11.0,12.0,164.6489539146423,82.0,82.0,2.0,1.0,0.727092981338501,165.42114996910095,6.830287768,172.25143773710096,163.92185711860657,8,4
4.0,813.0,7520.0,19.0,12.0,12.0,172.69874000549314,82.0,82.0,3.0,1.0,0.4279069900512695,173.77152609825131,6.629621234,180.40114733225133,172.27082514762878,8,4
4.0,813.0,7520.0,20.0,13.0,12.0,180.86036300659174,82.0,82.0,1.0,1.0,0.4408600330352784,181.91926312446594,6.737836668999999,188.65709979346593,180.41949605941764,8,4
4.0,813.0,7520.0,21.0,14.0,12.0,189.14207911491394,82.0,82.0,1.0,1.0,0.4565300941467284,190.1845121383667,6.214641238,196.3991533763667,188.68554592132568,8,4
4.0,813.0,7520.0,22.0,15.0,12.0,196.91294002532962,76.0,76.0,0.0,1.0,0.495621919631958,197.91693210601807,6.253368926,204.17030103201807,196.41730904579163,8,4
4.0,813.0,7520.0,23.0,16.0,12.0,204.66389107704163,82.0,82.0,3.0,1.0,0.4637660980224608,205.6872320175171,7.115323056,212.80255507351708,204.20011806488037,8,4
4.0,813.0,7520.0,24.0,17.0,12.0,213.35732412338254,76.0,82.0,0.0,0.0,0.5256409645080568,214.3319339752197,7.217684582,221.5496185572197,212.83167815208435,8,4
4.0,813.0,7520.0,25.0,18.0,12.0,222.06214499473566,76.0,82.0,0.0,0.0,0.4821557998657227,223.06828212738043,6.197338695000001,229.26562082238044,221.57997894287107,8,4
4.0,813.0,7520.0,26.0,19.0,12.0,229.77187895774844,76.0,76.0,1.0,1.0,0.4755070209503174,230.7952389717102,7.521907167,238.3171461387102,229.29636812210083,8,4
4.0,813.0,7520.0,27.0,20.0,12.0,238.78447198867804,82.0,82.0,1.0,1.0,0.43999290466308594,239.84453701972961,7.186002987000001,247.0305400067296,238.34447193145755,8,4
4.0,813.0,7520.0,28.0,21.0,12.0,247.78141212463376,82.0,82.0,0.0,1.0,0.7212679386138916,248.54787993431086,7.833443911,256.3813238453109,247.06013298034668,8,4
4.0,813.0,7520.0,29.0,22.0,12.0,256.8550500869751,82.0,82.0,4.0,1.0,0.44623684883117687,257.8968119621277,6.551136357000002,264.4479483191277,256.40880894660944,8,4
4.0,813.0,7520.0,30.0,23.0,12.0,264.9276659488678,76.0,82.0,0.0,0.0,0.4533331394195557,265.9737870693207,6.8253593409999995,272.7991464103207,264.474326133728,8,4
4.0,813.0,7520.0,31.0,24.0,12.0,273.2844920158387,82.0,82.0,0.0,1.0,0.4614090919494629,274.3110239505768,7.966205196,282.27722914657676,272.82312107086176,8,4
4.0,813.0,7520.0,32.0,25.0,12.0,282.82216811180115,76.0,82.0,0.0,0.0,0.5168290138244628,283.7931699752808,8.316670306,292.1098402812808,282.3053300380707,8,4
4.0,813.0,7520.0,33.0,26.0,12.0,292.6309030056,82.0,82.0,0.0,1.0,0.4941740036010743,293.62470006942743,6.5996902660000005,300.2243903354274,292.13672494888306,8,4
4.0,813.0,7520.0,34.0,27.0,12.0,300.8216600418091,76.0,82.0,2.0,0.0,0.5695140361785889,301.7402529716492,6.1421443610000015,307.88239733264925,300.25213909149176,8,4
4.0,813.0,7520.0,35.0,28.0,12.0,308.5493891239167,76.0,82.0,0.0,0.0,0.6480410099029541,309.40141510963446,6.996471843999999,316.39788695363444,307.90134310722357,8,4
4.0,813.0,7520.0,36.0,29.0,12.0,316.8851180076599,76.0,82.0,0.0,0.0,0.4685361385345458,317.91652607917786,7.37655801,325.29308408917785,316.4165761470794,8,4
4.0,813.0,7520.0,37.0,30.0,12.0,325.91466903686523,82.0,76.0,0.0,0.0,0.5991599559783936,326.8158190250397,6.198782992999998,333.0146020180397,325.3155040740967,8,4
4.0,813.0,7520.0,38.0,0.0,13.0,333.4425640106201,76.0,82.0,0.0,0.0,0.4120151996612549,334.5306971073151,6.8236166030000005,341.3543137103151,333.0305471420288,8,4
4.0,813.0,7520.0,39.0,1.0,13.0,341.98439693450933,82.0,76.0,3.0,0.0,0.6040120124816895,342.8802180290222,7.023105083000001,349.90332311202224,341.38038301467896,8,4
4.0,813.0,7520.0,40.0,2.0,13.0,350.50774192810053,82.0,82.0,3.0,1.0,0.4689390659332275,351.52606892585754,7.974849629999999,359.50091855585754,350.0387990474701,8,4
4.0,813.0,7520.0,41.0,3.0,13.0,360.0235991477966,82.0,76.0,0.0,0.0,0.5025730133056641,361.01971912384033,8.33580511,369.35552423384036,359.5210149288177,8,4
4.0,813.0,7520.0,42.0,4.0,13.0,369.90922498703003,82.0,82.0,2.0,1.0,0.5233988761901855,370.8731579780578,6.763984022000001,377.6371420000578,369.3858180046081,8,4
4.0,813.0,7520.0,43.0,5.0,13.0,378.22385597229,82.0,76.0,2.0,0.0,0.5556690692901612,379.15605592727667,8.482623584,387.6386795112767,377.66818213462824,8,4
4.0,813.0,7520.0,44.0,6.0,13.0,388.0057411193848,82.0,82.0,3.0,1.0,0.3396730422973632,389.15410900115967,7.718719605,396.87282860615966,387.66606211662287,8,4
4.0,813.0,7520.0,45.0,7.0,13.0,397.3334331512451,82.0,76.0,3.0,0.0,0.4351150989532471,398.38716006278986,8.637534137999998,407.02469420078984,396.8983130455017,8,4
4.0,813.0,7520.0,46.0,8.0,13.0,407.59817194938654,76.0,76.0,0.0,1.0,0.5511441230773926,408.535453081131,7.401030339,415.93648342013097,407.04701805114746,8,4
4.0,813.0,7520.0,47.0,9.0,13.0,416.3739271163941,76.0,82.0,1.0,0.0,0.4118990898132324,417.4497981071472,9.623171909,427.0729700161472,415.9620249271393,8,4
4.0,813.0,7520.0,48.0,10.0,13.0,427.58855104446405,82.0,76.0,0.0,0.0,0.4944238662719727,428.58240699768066,6.273675208999999,434.85608220668064,427.09412193298334,8,4
4.0,813.0,7520.0,49.0,11.0,13.0,435.50242304801935,76.0,82.0,4.0,0.0,0.6251978874206543,436.3762919902802,8.360017595,444.7363095852802,434.8772230148315,8,4
4.0,813.0,7520.0,50.0,12.0,13.0,445.2011070251465,82.0,76.0,3.0,0.0,0.44214200973510737,446.2583920955658,6.532901352999999,452.7912934485658,444.7589530944824,8,4
4.0,813.0,7520.0,51.0,13.0,13.0,453.19895195961,76.0,82.0,0.0,0.0,0.39169406890869135,454.3068690299988,6.161457564,460.46832659399877,452.8072550296784,8,4
4.0,813.0,7520.0,52.0,14.0,13.0,460.94466996192926,82.0,82.0,4.0,1.0,0.4549810886383057,461.9771521091461,7.6808590479999985,469.6580111571461,460.4896869659424,8,4
4.0,813.0,7520.0,53.0,15.0,13.0,470.2152829170227,76.0,82.0,0.0,0.0,0.5264139175415039,471.1878709793091,8.778043002999999,479.9659139823091,469.6888639926911,8,4
4.0,813.0,7520.0,54.0,16.0,13.0,480.36808609962463,76.0,82.0,0.0,0.0,0.3811538219451904,481.47423791885376,6.6360624810000015,488.11030039985377,479.98691105842596,8,4
4.0,813.0,7520.0,55.0,0.0,14.0,488.68889307975775,76.0,76.0,5.0,1.0,0.5530159473419188,489.6233489513396,9.319084644,498.9424335953396,488.1358709335328,8,4
4.0,813.0,7520.0,56.0,1.0,14.0,499.3876819610595,82.0,82.0,2.0,1.0,0.420382022857666,500.4554481506348,6.553907212,507.00935536263484,498.9672939777374,8,4
4.0,813.0,7520.0,57.0,2.0,14.0,507.53038692474365,76.0,76.0,4.0,1.0,0.4971339702606201,508.5330140590668,6.206747956999999,514.7397620160667,507.03324007987976,8,4
4.0,813.0,7520.0,58.0,3.0,14.0,515.2851989269258,82.0,82.0,4.0,1.0,0.5197210311889647,516.2531530857087,9.297171513,525.5503245987087,514.7654700279236,8,4
4.0,813.0,7520.0,59.0,4.0,14.0,526.0037810802461,76.0,76.0,2.0,1.0,0.4225578308105469,527.0803270339965,6.645541148,533.7258681819965,525.5812170505524,8,4
