reward_code,subj_id,condition,trial,epoch_trial,epoch_number,button_press,LR_solution,LR,reward,p_accuracy,rt,trial_end,iti_length,iti_end,stim_onset,session_n,run_n
2.0,860.0,6530.0,0.0,0.0,0.0,0.719888925552368,76.0,76.0,1.0,1.0,0.703873872756958,1.5072889328002927,6.537413788374602,8.044702721174895,0.016004085540771484,3,1
2.0,860.0,6530.0,1.0,1.0,0.0,8.658478021621704,76.0,82.0,0.0,0.0,0.5937230587005615,9.556647062301636,5.529359661388559,15.086006723690195,8.064747095108032,3,1
2.0,860.0,6530.0,2.0,2.0,0.0,15.596575021743773,76.0,76.0,3.0,1.0,0.4906530380249025,16.597421884536743,5.951982439978376,22.54940432451512,15.105918884277344,3,1
2.0,860.0,6530.0,3.0,3.0,0.0,23.05127501487732,76.0,82.0,3.0,0.0,0.4799270629882812,24.063112020492554,5.593099498525891,29.656211519018445,22.57134008407593,3,1
2.0,860.0,6530.0,4.0,4.0,0.0,30.223912000656128,76.0,82.0,0.0,0.0,0.5455269813537597,31.170257091522213,4.710282286101397,35.88053937762361,29.678380012512203,3,1
2.0,860.0,6530.0,5.0,5.0,0.0,36.42373204231263,76.0,82.0,2.0,0.0,0.5217659473419188,37.39357686042785,6.5833925407097365,43.97696940113759,35.9019570350647,3,1
2.0,860.0,6530.0,6.0,6.0,0.0,44.50251007080078,82.0,82.0,0.0,1.0,0.5014898777008058,45.49265789985657,9.125466847637094,54.61812474749366,44.00101590156555,3,1
2.0,860.0,6530.0,7.0,7.0,0.0,55.08552002906799,82.0,82.0,2.0,1.0,0.4443778991699219,56.133189916610725,5.196642787964493,61.32983270457522,54.64113402366638,3,1
2.0,860.0,6530.0,8.0,8.0,0.0,61.90698409080505,76.0,76.0,0.0,1.0,0.5496170520782471,62.848979949951165,5.032009728723152,67.88098967867431,61.35738801956177,3,1
2.0,860.0,6530.0,9.0,9.0,0.0,68.42683506011963,82.0,82.0,0.0,1.0,0.5269701480865479,69.39752507209778,6.636935185012783,76.03446025711057,67.89985704421997,3,1
2.0,860.0,6530.0,10.0,10.0,0.0,76.59973192214966,82.0,76.0,0.0,0.0,0.5527608394622803,77.54732608795166,7.289871539028846,84.83719762698051,76.04696393012999,3,1
2.0,860.0,6530.0,11.0,11.0,0.0,85.39441394805907,76.0,76.0,3.0,1.0,0.532404899597168,86.35379886627197,4.021218084971404,90.37501695124338,84.86200404167174,3,1
2.0,860.0,6530.0,12.0,12.0,0.0,90.93720388412477,76.0,76.0,3.0,1.0,0.5421619415283203,91.88671708106995,5.38697512591694,97.27369220698688,90.39503598213197,3,1
2.0,860.0,6530.0,13.0,13.0,0.0,97.79504299163816,82.0,76.0,3.0,0.0,0.5016069412231444,98.78472900390622,6.40895205343905,105.19368105734527,97.29343390464783,3,1
2.0,860.0,6530.0,14.0,14.0,0.0,105.71966791152954,82.0,82.0,0.0,1.0,0.5017731189727783,106.7085828781128,4.80099587656946,111.50957875468225,105.21789097785948,3,1
2.0,860.0,6530.0,15.0,15.0,0.0,112.1804940700531,76.0,82.0,0.0,0.0,0.6557490825653076,113.02512192726137,5.861835402238024,118.8869573294994,111.52473592758177,3,1
2.0,860.0,6530.0,16.0,16.0,0.0,119.65715289115904,82.0,,0.0,,,120.39938497543336,4.621362631633346,125.02074760706671,118.90685200691223,3,1
2.0,860.0,6530.0,17.0,17.0,0.0,125.64117789268492,82.0,82.0,0.0,1.0,0.6010160446166991,126.53062891960144,7.410199174681968,133.9408280942834,125.04015588760376,3,1
2.0,860.0,6530.0,18.0,18.0,0.0,134.56510186195374,76.0,76.0,4.0,1.0,0.601613998413086,135.45488286018372,5.462640979019813,140.91752383920354,133.96348190307614,3,1
2.0,860.0,6530.0,19.0,19.0,0.0,141.43386101722717,82.0,82.0,0.0,1.0,0.4972159862518311,142.4291388988495,5.184122749343461,147.61326164819295,140.93664002418518,3,1
2.0,860.0,6530.0,20.0,20.0,0.0,148.13571405410764,82.0,82.0,4.0,1.0,0.4989149570465087,149.1284120082855,4.752600231685042,153.88101223997054,147.636794090271,3,1
2.0,860.0,6530.0,21.0,21.0,0.0,154.47344994544983,76.0,82.0,3.0,0.0,0.5710899829864501,155.39382004737854,7.712562956403624,163.10638300378216,153.9023540019989,3,1
2.0,860.0,6530.0,22.0,22.0,0.0,163.74400401115417,82.0,82.0,4.0,1.0,0.6103219985961914,164.62559008598328,4.065231623145369,168.69082170912864,163.13367605209348,3,1
2.0,860.0,6530.0,23.0,23.0,0.0,169.38093590736386,76.0,82.0,0.0,0.0,0.6729130744934081,170.20855903625488,6.669993773248998,176.87855280950387,168.708016872406,3,1
2.0,860.0,6530.0,24.0,24.0,0.0,177.64144086837766,82.0,,0.0,,,178.38989090919495,5.523768265237907,183.91365917443287,176.89093494415283,3,1
2.0,860.0,6530.0,25.0,0.0,1.0,184.5944759845734,82.0,76.0,0.0,0.0,0.6627349853515625,185.43085193634036,8.654116249873825,194.08496818621418,183.93173289299008,3,1
2.0,860.0,6530.0,26.0,1.0,1.0,194.654296875,82.0,76.0,0.0,0.0,0.5491809844970703,195.6051368713379,11.752294395632745,207.35743126697065,194.10510897636414,3,1
2.0,860.0,6530.0,27.0,2.0,1.0,207.88464403152463,82.0,82.0,1.0,1.0,0.5149250030517578,208.869637966156,8.434228262266881,217.3038662284229,207.3697130680084,3,1
2.0,860.0,6530.0,28.0,3.0,1.0,217.97741293907166,82.0,82.0,3.0,1.0,0.6508839130401612,218.8173689842224,13.43908318105,232.2564521652724,217.3265290260315,3,1
2.0,860.0,6530.0,29.0,4.0,1.0,232.86618399620056,76.0,82.0,0.0,0.0,0.5895528793334961,233.7737438678741,4.32237662167831,238.0961204895524,232.27661895751956,3,1
2.0,860.0,6530.0,30.0,5.0,1.0,238.7058658599853,82.0,76.0,0.0,0.0,0.5905051231384276,239.61534309387207,7.653932073857603,247.26927516772966,238.1153509616852,3,1
2.0,860.0,6530.0,31.0,6.0,1.0,247.84263706207278,82.0,82.0,2.0,1.0,0.5537409782409668,248.78040409088132,6.2192714546489745,254.9996755455303,247.28889608383176,3,1
2.0,860.0,6530.0,32.0,7.0,1.0,255.53545689582822,76.0,76.0,0.0,1.0,0.5230650901794432,256.51257991790766,6.26026637752692,262.7728462954346,255.01238393783566,3,1
2.0,860.0,6530.0,33.0,8.0,1.0,263.3231360912323,76.0,76.0,0.0,1.0,0.5370080471038817,264.2866299152374,11.805958511049681,276.0925884262871,262.786122083664,3,1
2.0,860.0,6530.0,34.0,9.0,1.0,276.63473606109613,76.0,82.0,0.0,0.0,0.5258159637451172,277.6097900867462,4.5832235478880365,282.19301363463427,276.10891699790955,3,1
2.0,860.0,6530.0,35.0,10.0,1.0,282.75045490264887,82.0,82.0,1.0,1.0,0.5424010753631592,283.7080180644989,4.456734668973506,288.1647527334724,282.20804595947266,3,1
2.0,860.0,6530.0,36.0,11.0,1.0,288.8772978782653,76.0,76.0,0.0,1.0,0.6946380138397217,289.6823379993439,7.0127763011907325,296.6951143005346,288.1826629638672,3,1
2.0,860.0,6530.0,37.0,12.0,1.0,297.3421289920807,76.0,76.0,2.0,1.0,0.6355462074279785,298.2066230773926,4.08149694589676,302.28812002328937,296.70655608177185,3,1
2.0,860.0,6530.0,38.0,13.0,1.0,302.78697299957275,82.0,82.0,0.0,1.0,0.4814760684967041,303.80601406097406,9.848733094585704,313.6547471555598,302.3054928779602,3,1
2.0,860.0,6530.0,39.0,14.0,1.0,314.2348508834839,76.0,82.0,0.0,0.0,0.5646748542785645,315.17062187194824,6.780866448513487,321.95148832046175,313.67017698287964,3,1
2.0,860.0,6530.0,40.0,15.0,1.0,322.6014039516449,82.0,82.0,2.0,1.0,0.6313889026641846,323.46910190582275,4.341952866041593,327.81105477186435,321.9700150489807,3,1
2.0,860.0,6530.0,41.0,16.0,1.0,328.3963918685913,76.0,82.0,0.0,0.0,0.5689420700073242,329.3268139362335,7.771594020475417,337.0984079567089,327.82745909690857,3,1
2.0,860.0,6530.0,42.0,17.0,1.0,337.66497802734375,76.0,76.0,0.0,1.0,0.5473971366882323,338.617616891861,9.854067627023687,348.47168451888473,337.11757302284235,3,1
2.0,860.0,6530.0,43.0,18.0,1.0,349.0524408817291,76.0,76.0,3.0,1.0,0.561873197555542,349.9821119308472,4.296566526535419,354.2786784573826,348.4905660152436,3,1
2.0,860.0,6530.0,44.0,19.0,1.0,354.8244330883026,82.0,82.0,0.0,1.0,0.5172529220581055,355.7988300323487,6.521777435508963,362.32060746785766,354.30717802047735,3,1
2.0,860.0,6530.0,45.0,20.0,1.0,363.0602910518646,82.0,82.0,2.0,1.0,0.7191150188446044,363.8385570049286,8.320697623052814,372.1592546279814,362.3411688804626,3,1
2.0,860.0,6530.0,46.0,21.0,1.0,372.8169140815735,76.0,76.0,2.0,1.0,0.6380591392517089,373.67913198471064,8.739710456350213,382.41884244106086,372.178848028183,3,1
2.0,860.0,6530.0,47.0,22.0,1.0,383.028851032257,76.0,76.0,0.0,1.0,0.5936121940612792,383.9359939098358,4.347593037809928,388.28358694764574,382.4352340698241,3,1
2.0,860.0,6530.0,48.0,23.0,1.0,388.9805369377136,76.0,76.0,3.0,1.0,0.6786229610443116,389.7930309772492,8.265005315706118,398.0580362929553,388.30190396308893,3,1
2.0,860.0,6530.0,49.0,0.0,2.0,398.6004090309143,76.0,82.0,2.0,0.0,0.5248839855194093,399.57505393028254,6.304391573966028,405.87944550424857,398.0755219459533,3,1
2.0,860.0,6530.0,50.0,1.0,2.0,406.5087950229645,76.0,82.0,0.0,0.0,0.6098489761352539,407.39030909538263,7.693333010351501,415.08364210573416,405.8989379405975,3,1
2.0,860.0,6530.0,51.0,2.0,2.0,415.6237699985504,82.0,76.0,0.0,0.0,0.5231411457061766,416.59692096710205,11.947056536890926,428.543977503993,415.1006150245667,3,1
2.0,860.0,6530.0,52.0,3.0,2.0,429.03028798103327,76.0,82.0,0.0,0.0,0.4677178859710693,430.05366992950434,5.591123659946533,435.64479358945084,428.56256103515625,3,1
2.0,860.0,6530.0,53.0,4.0,2.0,436.3231780529023,82.0,82.0,2.0,1.0,0.6611390113830566,437.16122603416443,4.104072568947788,441.2652986031122,435.66203403472895,3,1
2.0,860.0,6530.0,54.0,5.0,2.0,441.89788889884954,76.0,76.0,1.0,1.0,0.6203739643096924,442.777498960495,4.2654630920860885,447.04296205258106,441.27750992774963,3,1
2.0,860.0,6530.0,55.0,6.0,2.0,447.7677330970764,82.0,76.0,0.0,0.0,0.7080819606781006,448.55939292907715,5.252973825512593,453.81236675458973,447.0596489906311,3,1
2.0,860.0,6530.0,56.0,7.0,2.0,454.3576209545136,82.0,82.0,3.0,1.0,0.5322802066802979,455.3249650001526,6.369885050703001,461.69485005085556,453.8253340721129,3,1
2.0,860.0,6530.0,57.0,8.0,2.0,462.29743885993963,76.0,76.0,4.0,1.0,0.5902359485626221,463.20717287063604,8.4079762752349,471.61514914587093,461.70719909667963,3,1
2.0,860.0,6530.0,58.0,9.0,2.0,472.2440688610077,82.0,76.0,1.0,0.0,0.6133270263671875,473.13123393058777,5.8891011820458745,479.02033511263363,471.63073301315296,3,1
2.0,860.0,6530.0,59.0,10.0,2.0,479.697870016098,76.0,76.0,0.0,1.0,0.6594090461730957,480.53009891510004,5.126866815413496,485.65696573051355,479.03845596313477,3,1
