reward_code,subj_id,condition,trial,epoch_trial,epoch_number,button_press,LR_solution,LR,reward,p_accuracy,rt,trial_end,iti_length,iti_end,stim_onset,session_n,run_n
3.0,813.0,7510.0,0.0,11.0,8.0,0.4629650115966797,76.0,76.0,0.0,1.0,0.44665908813476557,1.5166780948638914,6.830602832,8.347280926863892,0.016299009323120117,9,2
3.0,813.0,7510.0,1.0,12.0,8.0,8.880725145339964,82.0,76.0,0.0,0.0,0.5145881175994873,9.865867137908936,6.510286276,16.376153413908938,8.366131067276001,9,2
3.0,813.0,7510.0,2.0,13.0,8.0,16.823333024978638,82.0,82.0,2.0,1.0,0.4258921146392822,17.897923946380615,9.176654879,27.074578825380616,16.39743304252624,9,2
3.0,813.0,7510.0,3.0,14.0,8.0,27.552015066146847,82.0,76.0,3.0,0.0,0.4562718868255615,28.596194028854367,9.379149067,37.97534309585437,27.09573602676392,9,2
3.0,813.0,7510.0,4.0,15.0,8.0,38.47769999504089,76.0,82.0,0.0,0.0,0.4832170009613037,39.494687080383294,8.249659814999998,47.74434689538329,37.9944760799408,9,2
3.0,813.0,7510.0,5.0,16.0,8.0,48.30036616325377,82.0,82.0,3.0,1.0,0.5239620208740233,49.27633810043334,8.106125763999998,57.38246386443334,47.77640199661254,9,2
3.0,813.0,7510.0,6.0,0.0,9.0,57.860072135925286,82.0,82.0,3.0,1.0,0.451556921005249,58.90853214263915,6.351721296999999,65.26025343963916,57.408512115478516,9,2
3.0,813.0,7510.0,7.0,1.0,9.0,65.85072612762451,82.0,76.0,0.0,0.0,0.5608489513397216,66.79068517684937,6.394658274,73.18534345084936,65.28987097740173,9,2
3.0,813.0,7510.0,8.0,2.0,9.0,73.70049905776978,76.0,82.0,0.0,0.0,0.4947450160980225,74.70567297935486,6.118962944999999,80.82463592435485,73.20574998855591,9,2
3.0,813.0,7510.0,9.0,3.0,9.0,81.33126497268674,76.0,82.0,0.0,0.0,0.4763050079345703,82.35508012771606,8.225208136,90.58028826371606,80.85491895675659,9,2
3.0,813.0,7510.0,10.0,4.0,9.0,91.00700998306273,76.0,82.0,3.0,0.0,0.40380406379699707,92.10310816764832,6.317521856,98.42063002364831,90.60319900512697,9,2
3.0,813.0,7510.0,11.0,5.0,9.0,98.9007430076599,82.0,76.0,0.0,0.0,0.4484429359436035,99.95234704017639,7.028919837999999,106.98126687817638,98.45228910446168,9,2
3.0,813.0,7510.0,12.0,6.0,9.0,107.41024708747864,82.0,82.0,0.0,1.0,0.409437894821167,108.50172305107117,7.501984415,116.00370746607116,107.00081110000609,9,2
3.0,813.0,7510.0,13.0,0.0,10.0,116.59527015686037,82.0,76.0,3.0,0.0,0.5620911121368408,117.53356599807742,8.342266416000001,125.87583241407742,116.03317499160765,9,2
3.0,813.0,7510.0,14.0,1.0,10.0,126.31483697891235,76.0,82.0,0.0,0.0,0.4163589477539063,127.39840912818909,6.807756658,134.20616578618908,125.8984739780426,9,2
3.0,813.0,7510.0,15.0,2.0,10.0,134.6495201587677,82.0,82.0,3.0,1.0,0.4188809394836425,135.72982716560364,8.796708647,144.52653581260364,134.23063611984253,9,2
3.0,813.0,7510.0,16.0,3.0,10.0,145.0143461227417,82.0,82.0,3.0,1.0,0.4681179523468018,146.04522204399106,6.660214379000001,152.70543642299106,144.5462200641632,9,2
3.0,813.0,7510.0,17.0,4.0,10.0,153.2078239917755,76.0,76.0,1.0,1.0,0.480161190032959,154.22759103775024,9.794354736,164.02194577375025,152.72765803337094,9,2
3.0,813.0,7510.0,18.0,5.0,10.0,164.47042012214658,82.0,82.0,4.0,1.0,0.42777299880981445,165.54258012771606,6.830287768,172.37286789571607,164.04264402389526,9,2
3.0,813.0,7510.0,19.0,6.0,10.0,172.84426498413083,76.0,76.0,3.0,1.0,0.4526560306549072,173.89224004745483,6.629621234,180.52186128145485,172.39159703254703,9,2
3.0,813.0,7510.0,20.0,7.0,10.0,180.9547870159149,82.0,76.0,0.0,0.0,0.41442084312438965,182.04043006896967,6.737836668999999,188.77826673796966,180.54034399986267,9,2
3.0,813.0,7510.0,21.0,0.0,11.0,189.3196511268616,82.0,76.0,0.0,0.0,0.5136950016021729,190.30652117729187,6.214641238,196.52116241529188,188.80594801902768,9,2
3.0,813.0,7510.0,22.0,1.0,11.0,196.9605221748352,76.0,82.0,0.0,0.0,0.4057049751281738,198.05518794059756,6.253368926,204.30855686659757,196.5548119544983,9,2
3.0,813.0,7510.0,23.0,2.0,11.0,204.83902812004092,82.0,76.0,0.0,0.0,0.502007007598877,205.8361749649048,7.115323056,212.9514980209048,204.33705615997314,9,2
3.0,813.0,7510.0,24.0,3.0,11.0,213.6200361251831,76.0,76.0,0.0,1.0,0.6346769332885742,214.4854271411896,7.217684582,221.7031117231896,212.98537111282351,9,2
3.0,813.0,7510.0,25.0,4.0,11.0,222.1745409965515,76.0,82.0,2.0,0.0,0.43992614746093756,223.23442506790158,6.197338695000001,229.4317637629016,221.73460912704465,9,2
3.0,813.0,7510.0,26.0,5.0,11.0,229.91947698593137,82.0,82.0,1.0,1.0,0.4687581062316895,230.94991111755365,7.521907167,238.47181828455365,229.45071101188657,9,2
3.0,813.0,7510.0,27.0,6.0,11.0,239.0272550582886,82.0,76.0,0.0,0.0,0.5289158821105957,239.9984631538391,7.186002987000001,247.1844661408391,238.49833106994626,9,2
3.0,813.0,7510.0,28.0,7.0,11.0,247.7866489887237,82.0,76.0,0.0,0.0,0.5729069709777832,248.71394610404965,7.833443911,256.54739001504964,247.21373915672305,9,2
3.0,813.0,7510.0,29.0,8.0,11.0,257.1285309791565,76.0,76.0,4.0,1.0,0.5496699810028076,258.07869815826416,6.551136357000002,264.6298345152642,256.578861951828,9,2
3.0,813.0,7510.0,30.0,0.0,12.0,265.1904060840606,76.0,76.0,3.0,1.0,0.528494119644165,266.16092014312744,6.8253593409999995,272.98627948412746,264.661906003952,9,2
3.0,813.0,7510.0,31.0,1.0,12.0,273.46107006073,82.0,76.0,0.0,0.0,0.4503028392791748,274.5099310874939,7.966205196,282.4761362834939,273.0107569694519,9,2
3.0,813.0,7510.0,32.0,2.0,12.0,282.95850110054016,82.0,82.0,3.0,1.0,0.44945096969604487,284.00903415679926,8.316670306,292.32570446279925,282.50904512405396,9,2
3.0,813.0,7510.0,33.0,3.0,12.0,292.7801101207732,76.0,82.0,0.0,0.0,0.4223730564117433,293.8576271533966,6.5996902660000005,300.4573174193966,292.35772705078125,9,2
3.0,813.0,7510.0,34.0,4.0,12.0,300.92907595634455,82.0,76.0,3.0,0.0,0.4388260841369629,301.98952794075007,6.1421443610000015,308.1316723017501,300.4902460575104,9,2
3.0,813.0,7510.0,35.0,5.0,12.0,308.546756029129,82.0,82.0,2.0,1.0,0.39145708084106445,309.6554260253906,6.996471843999999,316.6518978693906,308.15528702735895,9,2
3.0,813.0,7510.0,36.0,6.0,12.0,317.11171317100525,82.0,76.0,3.0,0.0,0.44104218482971197,318.1706960201263,7.37655801,325.5472540301263,316.67066502571106,9,2
3.0,813.0,7510.0,37.0,7.0,12.0,325.94939494132996,82.0,82.0,1.0,1.0,0.37911009788513184,327.0688710212708,6.198782992999998,333.2676540142708,325.5702590942383,9,2
3.0,813.0,7510.0,38.0,8.0,12.0,333.8657970428467,82.0,82.0,0.0,1.0,0.5641908645629882,334.80167412757874,6.8236166030000005,341.62529073057874,333.30160212516785,9,2
3.0,813.0,7510.0,39.0,9.0,12.0,342.1017470359802,76.0,82.0,4.0,0.0,0.4512200355529785,343.15055108070374,7.023105083000001,350.17365616370375,341.6505229473114,9,2
3.0,813.0,7510.0,40.0,10.0,12.0,350.72449302673334,76.0,82.0,4.0,0.0,0.5243690013885498,351.6986401081085,7.974849629999999,359.6734897381085,350.2001221179962,9,2
3.0,813.0,7510.0,41.0,11.0,12.0,360.239000082016,76.0,82.0,0.0,0.0,0.5413320064544678,361.19755697250366,8.33580511,369.5333620825037,359.6976630687713,9,2
3.0,813.0,7510.0,42.0,12.0,12.0,370.07662606239325,82.0,76.0,0.0,0.0,0.5134010314941407,371.06353902816767,6.763984022000001,377.82752305016766,369.56321907043457,9,2
3.0,813.0,7510.0,43.0,13.0,12.0,378.5526201725006,76.0,76.0,1.0,1.0,0.6907501220703124,379.362056016922,8.482623584,387.844679600922,377.86186003685,9,2
3.0,813.0,7510.0,44.0,0.0,13.0,388.4755070209503,82.0,76.0,0.0,0.0,0.5984032154083252,389.3771650791168,7.718719605,397.0958846841168,387.8770899772644,9,2
3.0,813.0,7510.0,45.0,1.0,13.0,397.7788910865784,82.0,76.0,0.0,0.0,0.65283203125,398.6253621578217,8.637534137999998,407.2628962958217,397.12605500221247,9,2
3.0,813.0,7510.0,46.0,2.0,13.0,407.9223790168761,76.0,82.0,0.0,0.0,0.6313199996948242,408.79103016853327,7.401030339,416.19206050753326,407.2910540103911,9,2
3.0,813.0,7510.0,47.0,3.0,13.0,416.9164371490479,76.0,76.0,2.0,1.0,0.6032159328460692,417.8132059574128,9.623171909,427.4363778664128,416.31318402290333,9,2
3.0,813.0,7510.0,48.0,4.0,13.0,428.04304313659674,76.0,82.0,1.0,0.0,0.5815751552581787,428.9614281654358,6.273675208999999,435.23510337443577,427.4614670276641,9,2
3.0,813.0,7510.0,49.0,5.0,13.0,436.01100301742554,82.0,,0.0,,,436.7608721256256,8.360017595,445.1208897206256,435.26057505607605,9,2
3.0,813.0,7510.0,50.0,6.0,13.0,445.6015470027924,82.0,76.0,0.0,0.0,0.4586739540100097,446.64267110824574,6.532901352999999,453.17557246124574,445.14286303520197,9,2
3.0,813.0,7510.0,51.0,7.0,13.0,453.7832190990448,82.0,82.0,0.0,1.0,0.5755748748779297,454.70770215988165,6.161457564,460.86915972388164,453.2076420783997,9,2
3.0,813.0,7510.0,52.0,8.0,13.0,461.3790760040283,76.0,76.0,3.0,1.0,0.4879870414733887,462.39004898071283,7.6808590479999985,470.07090802871284,460.89108705520636,9,2
3.0,813.0,7510.0,53.0,9.0,13.0,470.6427810192109,76.0,76.0,3.0,1.0,0.553684949874878,471.58904695510853,8.778043002999999,480.3670899581085,470.08908796310413,9,2
3.0,813.0,7510.0,54.0,10.0,13.0,480.87665295600885,82.0,82.0,0.0,1.0,0.4891660213470458,481.88700199127203,6.6360624810000015,488.52306447227204,480.38748097419733,9,2
3.0,813.0,7510.0,55.0,11.0,13.0,489.0582311153412,82.0,76.0,0.0,0.0,0.5052330493927002,490.0533580780029,9.319084644,499.37244272200286,488.5529949665069,9,2
3.0,813.0,7510.0,56.0,12.0,13.0,500.1528940200805,82.0,82.0,0.0,1.0,0.751755952835083,500.9018399715424,6.553907212,507.4557471835424,499.4011330604553,9,2
3.0,813.0,7510.0,57.0,0.0,14.0,507.935672044754,76.0,76.0,1.0,1.0,0.4521310329437256,508.9835081100464,6.206747956999999,515.1902560670463,507.48352909088135,9,2
3.0,813.0,7510.0,58.0,1.0,14.0,515.6332740783691,82.0,82.0,4.0,1.0,0.4174089431762695,516.7149701118469,9.297171513,526.0121416248469,515.2158591747284,9,2
3.0,813.0,7510.0,59.0,2.0,14.0,526.4722249507904,76.0,76.0,0.0,1.0,0.4410049915313721,527.5301640033721,6.645541148,534.1757051513721,526.0312161445618,9,2
