reward_code,subj_id,condition,trial,epoch_trial,epoch_number,button_press,LR_solution,LR,reward,p_accuracy,rt,trial_end,iti_length,iti_end,stim_onset,session_n,run_n
5.0,860.0,7530.0,0.0,28.0,5.0,0.3886709213256836,76.0,82.0,4.0,0.0,0.3729031085968018,1.5168609619140625,7.191730373614961,8.708591335529023,0.01576685905456543,7,4
5.0,860.0,7530.0,1.0,29.0,5.0,9.208567857742308,82.0,76.0,3.0,0.0,0.4751060009002685,10.22253680229187,5.63813957033442,15.86067637262629,8.733452796936037,7,4
5.0,860.0,7530.0,2.0,0.0,6.0,16.47140884399414,76.0,76.0,5.0,1.0,0.5945560932159424,17.377520799636837,15.928372706819811,33.30589350645665,15.876846790313722,7,4
5.0,860.0,7530.0,3.0,1.0,6.0,33.820772886276245,76.0,76.0,0.0,1.0,0.4985499382019043,34.823389768600464,4.332937913111464,39.15632768171193,33.32221579551697,7,4
5.0,860.0,7530.0,4.0,2.0,6.0,39.88867998123169,76.0,82.0,2.0,0.0,0.7126059532165527,40.67699384689331,8.212556086699044,48.889549933592356,39.17607092857361,7,4
5.0,860.0,7530.0,5.0,3.0,6.0,49.36127591133118,82.0,76.0,3.0,0.0,0.4503819942474365,50.41077184677124,5.3569238186097845,55.76769566538103,48.910889863967896,7,4
5.0,860.0,7530.0,6.0,4.0,6.0,56.29796290397643,82.0,76.0,2.0,0.0,0.4935932159423828,57.29386496543884,4.43403392455484,61.72789888999368,55.804367780685425,7,4
5.0,860.0,7530.0,7.0,5.0,6.0,62.257255792617805,82.0,76.0,4.0,0.0,0.4992001056671143,63.25924897193909,5.493332368608644,68.75258134054774,61.75804686546326,7,4
5.0,860.0,7530.0,8.0,6.0,6.0,69.25966286659241,82.0,76.0,4.0,0.0,0.4844667911529542,70.26388478279114,4.401000837719644,74.66488562051079,68.7751898765564,7,4
5.0,860.0,7530.0,9.0,7.0,6.0,75.28843593597412,76.0,82.0,2.0,0.0,0.6046719551086426,76.1854498386383,4.463307996305603,80.64875783494391,74.68375682830809,7,4
5.0,860.0,7530.0,10.0,8.0,6.0,81.26130199432373,76.0,82.0,5.0,0.0,0.5895118713378906,82.17301392555235,6.15977985100237,88.33279377655472,80.67178297042847,7,4
5.0,860.0,7530.0,11.0,9.0,6.0,88.85898184776306,82.0,76.0,3.0,0.0,0.5034971237182616,89.84396886825562,4.794944288475096,94.63891315673071,88.35547590255737,7,4
5.0,860.0,7530.0,12.0,10.0,6.0,95.25497484207153,82.0,82.0,1.0,1.0,0.5904340744018555,96.15545177459714,10.107734589882623,106.26318636447976,94.66453695297241,7,4
5.0,860.0,7530.0,13.0,11.0,6.0,106.85030984878541,82.0,76.0,3.0,0.0,0.5616731643676758,107.78687596321106,4.662898533616431,112.44977449682749,106.28863191604614,7,4
5.0,860.0,7530.0,14.0,12.0,6.0,113.11732387542723,82.0,76.0,0.0,0.0,0.640704870223999,113.96862387657164,11.876653444952051,125.8452773215237,112.47661399841309,7,4
5.0,860.0,7530.0,15.0,13.0,6.0,126.51979184150697,82.0,76.0,3.0,0.0,0.6505999565124512,127.36746883392335,4.867967641124135,132.2354364750475,125.86918592453003,7,4
5.0,860.0,7530.0,16.0,14.0,6.0,132.7815728187561,82.0,76.0,0.0,0.0,0.5247681140899658,133.74933099746704,13.525277136535523,147.27460813400256,132.25679993629456,7,4
5.0,860.0,7530.0,17.0,15.0,6.0,147.94813489913938,82.0,82.0,0.0,1.0,0.6468820571899415,148.79708194732666,12.988359444276105,161.78544139160277,147.301246881485,7,4
5.0,860.0,7530.0,18.0,16.0,6.0,162.33279681205747,76.0,82.0,3.0,0.0,0.5224130153656006,163.31104087829587,4.412535702911772,167.72357658120765,161.81037878990173,7,4
5.0,860.0,7530.0,19.0,17.0,6.0,168.29679489135742,82.0,76.0,1.0,0.0,0.5478808879852295,169.23219895362854,5.211772789829945,174.4439717434585,167.74890899658203,7,4
5.0,860.0,7530.0,20.0,18.0,6.0,174.99544978141785,82.0,76.0,0.0,0.0,0.5261549949645996,175.95984077453613,13.712505219195783,189.6723459937319,174.4692897796631,7,4
5.0,860.0,7530.0,21.0,19.0,6.0,190.22978687286374,76.0,82.0,1.0,0.0,0.5335278511047364,191.1908929347992,8.180927439352063,199.37182037415127,189.69625186920166,7,4
5.0,860.0,7530.0,22.0,20.0,6.0,199.89750599861145,76.0,82.0,2.0,0.0,0.4949719905853272,200.9047019481659,4.0344307679925375,204.93913271615844,199.40253090858457,7,4
5.0,860.0,7530.0,23.0,21.0,6.0,205.4775757789612,82.0,76.0,1.0,0.0,0.504875898361206,206.47263693809506,13.46721720140416,219.93985413949923,204.97269797325131,7,4
5.0,860.0,7530.0,24.0,22.0,6.0,220.5040378570557,82.0,76.0,0.0,0.0,0.5364251136779785,221.46885776519773,7.1063988513673175,228.57525661656504,219.96760988235474,7,4
5.0,860.0,7530.0,25.0,23.0,6.0,229.10972189903256,82.0,76.0,3.0,0.0,0.5071609020233153,230.09109091758725,4.458743938956099,234.54983485654336,228.60255789756772,7,4
5.0,860.0,7530.0,26.0,24.0,6.0,235.12451982498172,82.0,76.0,2.0,0.0,0.5468850135803223,236.06806683540347,5.159501883734018,241.22756871913748,234.57762098312375,7,4
5.0,860.0,7530.0,27.0,25.0,6.0,241.74241495132446,82.0,76.0,2.0,0.0,0.4929590225219727,242.75033497810367,4.493645983529492,247.24398096163316,241.24944877624515,7,4
5.0,860.0,7530.0,28.0,26.0,6.0,247.76908493041992,76.0,82.0,0.0,0.0,0.4997010231018066,248.76574182510373,13.326690146822633,262.0924319719264,247.26937890052798,7,4
5.0,860.0,7530.0,29.0,27.0,6.0,262.6266098022461,76.0,76.0,3.0,1.0,0.5133140087127686,263.61446380615234,4.244203180332753,267.8586669864851,262.11329388618464,7,4
5.0,860.0,7530.0,30.0,28.0,6.0,268.370481967926,82.0,76.0,2.0,0.0,0.4858849048614501,269.3682668209076,7.286149778341224,276.6544165992488,267.88459491729736,7,4
5.0,860.0,7530.0,31.0,29.0,6.0,277.25411677360535,82.0,76.0,1.0,0.0,0.5805890560150145,278.17378783226013,8.224403361105995,286.39819119336613,276.6735248565673,7,4
5.0,860.0,7530.0,32.0,30.0,6.0,286.9768187999725,82.0,76.0,0.0,0.0,0.5467338562011718,287.9276039600373,6.74104024905565,294.6686442090929,286.4300739765167,7,4
5.0,860.0,7530.0,33.0,0.0,7.0,295.21977782249445,82.0,76.0,2.0,0.0,0.533850908279419,296.18751382827764,5.425803268162838,301.6133170964405,294.68592286109924,7,4
5.0,860.0,7530.0,34.0,1.0,7.0,302.2662677764892,76.0,82.0,0.0,0.0,0.6261029243469238,303.1410858631134,6.438536354147629,309.57962221726103,301.6401598453522,7,4
5.0,860.0,7530.0,35.0,2.0,7.0,310.2583329677581,82.0,82.0,0.0,1.0,0.6507039070129395,311.0968008041382,4.3197174499427256,315.4165182540809,309.60762000083923,7,4
5.0,860.0,7530.0,36.0,3.0,7.0,315.9641408920288,76.0,76.0,0.0,1.0,0.5313198566436768,316.9349467754364,6.1739681783284475,323.10891495376484,315.43281579017633,7,4
5.0,860.0,7530.0,37.0,4.0,7.0,323.70771884918213,76.0,82.0,2.0,0.0,0.5699741840362548,324.6389729976654,6.57379481182516,331.2127678094906,323.13774180412287,7,4
5.0,860.0,7530.0,38.0,5.0,7.0,331.7664799690246,82.0,76.0,3.0,0.0,0.5290498733520508,332.7289769649505,9.30355874870316,342.03253571365366,331.2374258041382,7,4
5.0,860.0,7530.0,39.0,6.0,7.0,342.57929491996765,82.0,76.0,1.0,0.0,0.5273089408874513,343.5525789260864,7.152365189148785,350.7049441152352,342.05198478698725,7,4
5.0,860.0,7530.0,40.0,7.0,7.0,351.3959548473358,82.0,76.0,2.0,0.0,0.661182165145874,352.2256579399109,15.640115086445402,367.8657730263563,350.73476481437683,7,4
5.0,860.0,7530.0,41.0,8.0,7.0,368.4545748233795,76.0,82.0,4.0,0.0,0.5676848888397217,369.3816559314728,7.334496845904621,376.7161527773774,367.88688087463373,7,4
5.0,860.0,7530.0,42.0,9.0,7.0,377.3079788684845,82.0,76.0,4.0,0.0,0.5652577877044678,378.23203897476196,13.381791676252966,391.61383065101495,376.74271583557123,7,4
5.0,860.0,7530.0,43.0,10.0,7.0,392.1755738258361,82.0,76.0,0.0,0.0,0.5398437976837159,393.12979078292847,10.03632215783033,403.1661129407588,391.63572382926947,7,4
5.0,860.0,7530.0,44.0,11.0,7.0,403.78620195388794,82.0,76.0,0.0,0.0,0.4844670295715332,404.80169796943665,4.846142642894234,409.64784061233087,403.30172991752625,7,4
5.0,860.0,7530.0,45.0,12.0,7.0,410.2780239582062,82.0,82.0,2.0,1.0,0.6054599285125734,411.1681377887726,4.786852510584227,415.95499029935684,409.6725537776947,7,4
5.0,860.0,7530.0,46.0,13.0,7.0,416.59585094451904,82.0,82.0,0.0,1.0,0.6188888549804688,417.4782469272614,4.3922541382544456,421.87050106551584,415.97695183753973,7,4
5.0,860.0,7530.0,47.0,14.0,7.0,422.4765319824218,76.0,82.0,0.0,0.0,0.5779600143432617,423.39867496490484,5.630866643638925,429.02954160854375,421.8985688686371,7,4
5.0,860.0,7530.0,48.0,15.0,7.0,429.6724929809569,82.0,82.0,0.0,1.0,0.6030049324035645,430.55417680740356,9.973816060926238,440.5279928683298,429.06948280334467,7,4
5.0,860.0,7530.0,49.0,16.0,7.0,441.0211279392242,76.0,76.0,0.0,1.0,0.4602749347686768,442.06169199943537,6.195842468567526,448.2575344680029,440.5608489513396,7,4
5.0,860.0,7530.0,50.0,17.0,7.0,448.8549718856812,82.0,76.0,2.0,0.0,0.5725328922271729,449.77919983863836,5.328791931630618,455.107991770269,448.28243589401245,7,4
5.0,860.0,7530.0,51.0,18.0,7.0,455.61276888847357,76.0,82.0,4.0,0.0,0.4752759933471681,456.62811684608454,6.652533864391259,463.2806507104758,455.13749098777765,7,4
5.0,860.0,7530.0,52.0,19.0,7.0,463.8044648170471,82.0,76.0,1.0,0.0,0.4945988655090332,464.80975079536444,5.33269313431404,470.14244392967845,463.3098609447479,7,4
5.0,860.0,7530.0,53.0,20.0,7.0,470.7232029438019,82.0,76.0,2.0,0.0,0.5580399036407471,471.6598529815674,6.138562806636696,477.79841578820407,470.1651618480682,7,4
5.0,860.0,7530.0,54.0,21.0,7.0,478.33631491661066,82.0,76.0,0.0,0.0,0.5156888961791992,479.3087029457092,8.528388107618994,487.83709105332815,477.82062387466436,7,4
5.0,860.0,7530.0,55.0,22.0,7.0,488.3558378219604,82.0,76.0,1.0,0.0,0.4945950508117676,489.3573517799378,5.551304577561232,494.908656357499,487.8612418174745,7,4
5.0,860.0,7530.0,56.0,23.0,7.0,495.4776737689972,76.0,82.0,0.0,0.0,0.5455830097198486,496.4223268032074,6.397200328972536,502.8195271321799,494.93209481239325,7,4
5.0,860.0,7530.0,57.0,24.0,7.0,503.28035783767695,82.0,76.0,3.0,0.0,0.4262440204620361,504.35534787178045,5.534974787841634,509.8903226596221,502.8541059494019,7,4
5.0,860.0,7530.0,58.0,25.0,7.0,510.49036097526556,82.0,76.0,1.0,0.0,0.5699388980865479,511.410003900528,4.355780780201789,515.7657846807298,509.92041397094727,7,4
5.0,860.0,7530.0,59.0,26.0,7.0,516.2109508514404,82.0,76.0,2.0,0.0,0.43146395683288574,517.2808039188385,4.677438558966959,521.9582424778055,515.7794868946074,7,4
