stim_onset, stim_duration, trial_type, rt, accuracy, epoch_length,epoch_trial, epoch_number
1.515793800354003906e-02	1.500115871429443359e+00	0.000000000000000000e+00	3.411109447479248047e-01	1.000000000000000000e+00	2.800000000000000000e+01	2.700000000000000000e+01	7.000000000000000000e+00
1.104726791381835938e+01	1.487082004547119141e+00	1.000000000000000000e+00	5.455942153930664062e-01	1.000000000000000000e+00	2.500000000000000000e+01	0.000000000000000000e+00	8.000000000000000000e+00
1.932963395118713379e+01	1.499532938003540039e+00	2.000000000000000000e+00	4.900910854339599609e-01	1.000000000000000000e+00	2.500000000000000000e+01	1.000000000000000000e+00	8.000000000000000000e+00
2.731227779388427734e+01	1.499010086059570312e+00	3.000000000000000000e+00	5.022389888763427734e-01	0.000000000000000000e+00	2.500000000000000000e+01	2.000000000000000000e+00	8.000000000000000000e+00
3.459460282325744629e+01	1.499042987823486328e+00	4.000000000000000000e+00	4.785730838775634766e-01	0.000000000000000000e+00	2.500000000000000000e+01	3.000000000000000000e+00	8.000000000000000000e+00
4.024317288398742676e+01	1.487011909484863281e+00	5.000000000000000000e+00	4.998409748077392578e-01	0.000000000000000000e+00	2.500000000000000000e+01	4.000000000000000000e+00	8.000000000000000000e+00
5.132503581047058105e+01	1.487154006958007812e+00	6.000000000000000000e+00	6.137909889221191406e-01	0.000000000000000000e+00	2.500000000000000000e+01	5.000000000000000000e+00	8.000000000000000000e+00
5.710729789733886719e+01	1.487338066101074219e+00	7.000000000000000000e+00	4.691169261932373047e-01	0.000000000000000000e+00	2.500000000000000000e+01	6.000000000000000000e+00	8.000000000000000000e+00
7.043904399871826172e+01	1.500009775161743164e+00	8.000000000000000000e+00	5.610890388488769531e-01	0.000000000000000000e+00	2.500000000000000000e+01	7.000000000000000000e+00	8.000000000000000000e+00
8.060406589508056641e+01	1.499994993209838867e+00	9.000000000000000000e+00	5.209591388702392578e-01	0.000000000000000000e+00	2.500000000000000000e+01	8.000000000000000000e+00	8.000000000000000000e+00
9.075241279602050781e+01	1.500267028808593750e+00	1.000000000000000000e+01	5.172331333160400391e-01	0.000000000000000000e+00	2.500000000000000000e+01	9.000000000000000000e+00	8.000000000000000000e+00
1.000847718715667725e+02	1.499329090118408203e+00	1.100000000000000000e+01	5.526211261749267578e-01	0.000000000000000000e+00	2.500000000000000000e+01	1.000000000000000000e+01	8.000000000000000000e+00
1.061333367824554443e+02	1.500150203704833984e+00	1.200000000000000000e+01	5.106489658355712891e-01	0.000000000000000000e+00	2.500000000000000000e+01	1.100000000000000000e+01	8.000000000000000000e+00
1.194153249263763428e+02	1.499749898910522461e+00	1.300000000000000000e+01	5.275580883026123047e-01	0.000000000000000000e+00	2.500000000000000000e+01	1.200000000000000000e+01	8.000000000000000000e+00
1.315131378173828125e+02	1.500928163528442383e+00	1.400000000000000000e+01	5.031740665435791016e-01	0.000000000000000000e+00	2.500000000000000000e+01	1.300000000000000000e+01	8.000000000000000000e+00
1.425117518901824951e+02	1.500879049301147461e+00	1.500000000000000000e+01	5.702681541442871094e-01	0.000000000000000000e+00	2.500000000000000000e+01	1.400000000000000000e+01	8.000000000000000000e+00
1.489781389236450195e+02	1.499028921127319336e+00	1.600000000000000000e+01	5.257511138916015625e-01	0.000000000000000000e+00	2.500000000000000000e+01	1.500000000000000000e+01	8.000000000000000000e+00
1.557435569763183594e+02	1.499984025955200195e+00	1.700000000000000000e+01	6.402230262756347656e-01	0.000000000000000000e+00	2.500000000000000000e+01	1.600000000000000000e+01	8.000000000000000000e+00
1.618589298725128174e+02	1.500947952270507812e+00	1.800000000000000000e+01	5.635120868682861328e-01	0.000000000000000000e+00	2.500000000000000000e+01	1.700000000000000000e+01	8.000000000000000000e+00
1.727406568527221680e+02	1.500195026397705078e+00	1.900000000000000000e+01	6.353359222412109375e-01	0.000000000000000000e+00	2.500000000000000000e+01	1.800000000000000000e+01	8.000000000000000000e+00
1.866562728881835938e+02	1.498966932296752930e+00	2.000000000000000000e+01	6.045410633087158203e-01	0.000000000000000000e+00	2.500000000000000000e+01	1.900000000000000000e+01	8.000000000000000000e+00
1.962212100028991699e+02	1.500119924545288086e+00	2.100000000000000000e+01	5.314288139343261719e-01	0.000000000000000000e+00	2.500000000000000000e+01	2.000000000000000000e+01	8.000000000000000000e+00
2.029532158374786377e+02	1.499953985214233398e+00	2.200000000000000000e+01	5.279600620269775391e-01	0.000000000000000000e+00	2.500000000000000000e+01	2.100000000000000000e+01	8.000000000000000000e+00
2.092358438968658447e+02	1.500252008438110352e+00	2.300000000000000000e+01	4.834129810333251953e-01	0.000000000000000000e+00	2.500000000000000000e+01	2.200000000000000000e+01	8.000000000000000000e+00
2.165185298919677734e+02	1.499310016632080078e+00	2.400000000000000000e+01	5.544610023498535156e-01	0.000000000000000000e+00	2.500000000000000000e+01	2.300000000000000000e+01	8.000000000000000000e+00
2.237507979869842529e+02	1.499693870544433594e+00	2.500000000000000000e+01	6.346640586853027344e-01	0.000000000000000000e+00	2.500000000000000000e+01	2.400000000000000000e+01	8.000000000000000000e+00
2.311996219158172607e+02	1.499423027038574219e+00	2.600000000000000000e+01	5.047109127044677734e-01	1.000000000000000000e+00	2.900000000000000000e+01	0.000000000000000000e+00	9.000000000000000000e+00
2.370152080059051514e+02	1.500064849853515625e+00	2.700000000000000000e+01	4.040999412536621094e-01	1.000000000000000000e+00	2.900000000000000000e+01	1.000000000000000000e+00	9.000000000000000000e+00
2.440477898120880127e+02	1.500212192535400391e+00	2.800000000000000000e+01	5.273549556732177734e-01	1.000000000000000000e+00	2.900000000000000000e+01	2.000000000000000000e+00	9.000000000000000000e+00
2.500135309696197510e+02	1.499529838562011719e+00	2.900000000000000000e+01	5.661799907684326172e-01	0.000000000000000000e+00	2.900000000000000000e+01	3.000000000000000000e+00	9.000000000000000000e+00
2.608119239807128906e+02	1.499716997146606445e+00	3.000000000000000000e+01	6.098258495330810547e-01	0.000000000000000000e+00	2.900000000000000000e+01	4.000000000000000000e+00	9.000000000000000000e+00
2.670783789157867432e+02	1.500060081481933594e+00	3.100000000000000000e+01	4.771440029144287109e-01	1.000000000000000000e+00	2.900000000000000000e+01	5.000000000000000000e+00	9.000000000000000000e+00
2.740264229774475098e+02	1.500126838684082031e+00	3.200000000000000000e+01	4.716567993164062500e-01	0.000000000000000000e+00	2.900000000000000000e+01	6.000000000000000000e+00	9.000000000000000000e+00
2.846252949237823486e+02	1.499299049377441406e+00	3.300000000000000000e+01	5.045280456542968750e-01	0.000000000000000000e+00	2.900000000000000000e+01	7.000000000000000000e+00	9.000000000000000000e+00
2.975232138633728027e+02	1.487186908721923828e+00	3.400000000000000000e+01	4.664130210876464844e-01	0.000000000000000000e+00	2.900000000000000000e+01	8.000000000000000000e+00	9.000000000000000000e+00
3.097886118888854980e+02	1.499675989151000977e+00	3.500000000000000000e+01	6.155490875244140625e-01	0.000000000000000000e+00	2.900000000000000000e+01	9.000000000000000000e+00	9.000000000000000000e+00
3.208538298606872559e+02	1.499135971069335938e+00	3.600000000000000000e+01	6.188888549804687500e-01	0.000000000000000000e+00	2.900000000000000000e+01	1.000000000000000000e+01	9.000000000000000000e+00
3.298689978122711182e+02	1.499750137329101562e+00	3.700000000000000000e+01	5.087459087371826172e-01	0.000000000000000000e+00	2.900000000000000000e+01	1.100000000000000000e+01	9.000000000000000000e+00
3.357017037868499756e+02	1.499561071395874023e+00	3.800000000000000000e+01	4.817900657653808594e-01	0.000000000000000000e+00	2.900000000000000000e+01	1.200000000000000000e+01	9.000000000000000000e+00
3.445332238674163818e+02	1.499917030334472656e+00	3.900000000000000000e+01	5.521099567413330078e-01	0.000000000000000000e+00	2.900000000000000000e+01	1.300000000000000000e+01	9.000000000000000000e+00
3.547989089488983154e+02	1.499189853668212891e+00	4.000000000000000000e+01	5.319108963012695312e-01	0.000000000000000000e+00	2.900000000000000000e+01	1.400000000000000000e+01	9.000000000000000000e+00
3.680802857875823975e+02	1.499643087387084961e+00	4.100000000000000000e+01	5.330231189727783203e-01	0.000000000000000000e+00	2.900000000000000000e+01	1.500000000000000000e+01	9.000000000000000000e+00
3.743300828933715820e+02	1.499645948410034180e+00	4.200000000000000000e+01	4.612441062927246094e-01	0.000000000000000000e+00	2.900000000000000000e+01	1.600000000000000000e+01	9.000000000000000000e+00
3.805288398265838623e+02	1.499917030334472656e+00	4.300000000000000000e+01	5.733330249786376953e-01	0.000000000000000000e+00	2.900000000000000000e+01	1.700000000000000000e+01	9.000000000000000000e+00
3.879112629890441895e+02	1.500000953674316406e+00	4.400000000000000000e+01	5.215330123901367188e-01	0.000000000000000000e+00	2.900000000000000000e+01	1.800000000000000000e+01	9.000000000000000000e+00
3.938104538917541504e+02	1.499788999557495117e+00	4.500000000000000000e+01	5.292580127716064453e-01	0.000000000000000000e+00	2.900000000000000000e+01	1.900000000000000000e+01	9.000000000000000000e+00
4.028257589340209961e+02	1.500043869018554688e+00	4.600000000000000000e+01	4.448120594024658203e-01	0.000000000000000000e+00	2.900000000000000000e+01	2.000000000000000000e+01	9.000000000000000000e+00
4.116908237934112549e+02	1.487758159637451172e+00	4.700000000000000000e+01	6.014230251312255859e-01	0.000000000000000000e+00	2.900000000000000000e+01	2.100000000000000000e+01	9.000000000000000000e+00
4.188899278640747070e+02	1.486832141876220703e+00	4.800000000000000000e+01	6.811339855194091797e-01	0.000000000000000000e+00	2.900000000000000000e+01	2.200000000000000000e+01	9.000000000000000000e+00
4.253392260074615479e+02	1.498952865600585938e+00	4.900000000000000000e+01	6.145820617675781250e-01	0.000000000000000000e+00	2.900000000000000000e+01	2.300000000000000000e+01	9.000000000000000000e+00
4.342210748195648193e+02	1.500476121902465820e+00	5.000000000000000000e+01	5.403780937194824219e-01	1.000000000000000000e+00	2.900000000000000000e+01	2.400000000000000000e+01	9.000000000000000000e+00
4.419864559173583984e+02	1.499784946441650391e+00	5.100000000000000000e+01	4.784429073333740234e-01	0.000000000000000000e+00	2.900000000000000000e+01	2.500000000000000000e+01	9.000000000000000000e+00
4.475690939426422119e+02	1.487112998962402344e+00	5.200000000000000000e+01	5.700531005859375000e-01	0.000000000000000000e+00	2.900000000000000000e+01	2.600000000000000000e+01	9.000000000000000000e+00
4.534178028106689453e+02	1.500615119934082031e+00	5.300000000000000000e+01	5.431978702545166016e-01	0.000000000000000000e+00	2.900000000000000000e+01	2.700000000000000000e+01	9.000000000000000000e+00
4.636505088806152344e+02	1.499557971954345703e+00	5.400000000000000000e+01	4.411599636077880859e-01	0.000000000000000000e+00	2.900000000000000000e+01	2.800000000000000000e+01	9.000000000000000000e+00
4.726657829284667969e+02	1.499757051467895508e+00	5.500000000000000000e+01	6.604599952697753906e-01	1.000000000000000000e+00	2.400000000000000000e+01	0.000000000000000000e+00	1.000000000000000000e+01
4.827141458988189697e+02	1.499360084533691406e+00	5.600000000000000000e+01	5.920498371124267578e-01	1.000000000000000000e+00	2.400000000000000000e+01	1.000000000000000000e+00	1.000000000000000000e+01
4.909799399375915527e+02	1.499731063842773438e+00	5.700000000000000000e+01	5.049121379852294922e-01	1.000000000000000000e+00	2.400000000000000000e+01	2.000000000000000000e+00	1.000000000000000000e+01
4.972117598056793213e+02	1.499754190444946289e+00	5.800000000000000000e+01	6.028859615325927734e-01	1.000000000000000000e+00	2.400000000000000000e+01	3.000000000000000000e+00	1.000000000000000000e+01
5.036274158954620361e+02	1.500694036483764648e+00	5.900000000000000000e+01	4.631121158599853516e-01	0.000000000000000000e+00	2.400000000000000000e+01	4.000000000000000000e+00	1.000000000000000000e+01
