reward_code,subj_id,condition,trial,epoch_trial,epoch_number,button_press,LR_solution,LR,reward,p_accuracy,rt,trial_end,iti_length,iti_end,stim_onset,session_n,run_n
1.0,811.0,6520.0,0.0,3.0,6.0,0.5340578556060791,76.0,82.0,2.0,0.0,0.5179769992828369,1.5078999996185305,7.378848249560429,8.88674824917896,0.016073942184448242,3,3
1.0,811.0,6520.0,1.0,4.0,6.0,9.558838844299315,76.0,82.0,3.0,0.0,0.651595115661621,10.398814916610716,8.187719882552399,18.586534799163115,8.907235860824585,3,3
1.0,811.0,6520.0,2.0,5.0,6.0,19.076376914978027,76.0,82.0,2.0,0.0,0.4698061943054199,20.106040954589844,8.950443989757037,29.05648494434688,18.606562852859494,3,3
1.0,811.0,6520.0,3.0,6.0,6.0,29.659219026565555,82.0,76.0,2.0,0.0,0.5874340534210204,30.570734024047848,6.2955322601953565,36.8662662842432,29.07177782058716,3,3
1.0,811.0,6520.0,4.0,7.0,6.0,37.51770901679993,82.0,76.0,0.0,0.0,0.6304020881652832,38.387028932571404,4.828788357543105,43.21581729011451,36.88730001449585,3,3
1.0,811.0,6520.0,5.0,8.0,6.0,43.772655963897705,82.0,76.0,0.0,0.0,0.5371448993682861,44.73629188537598,4.2478790836091145,48.98417096898509,43.235503911972046,3,3
1.0,811.0,6520.0,6.0,9.0,6.0,49.50080800056457,76.0,82.0,3.0,0.0,0.4984550476074218,50.50087094306945,11.963170862880748,62.4640418059502,49.00234293937683,3,3
1.0,811.0,6520.0,7.0,10.0,6.0,62.98219895362855,76.0,82.0,0.0,0.0,0.4989659786224365,63.98334193229675,8.242153116293434,72.22549504859019,62.48320293426514,3,3
1.0,811.0,6520.0,8.0,11.0,6.0,72.70578789710999,76.0,82.0,0.0,0.0,0.4569051265716553,73.73947882652281,5.4241909571867275,79.16366978370954,72.24887490272523,3,3
1.0,811.0,6520.0,9.0,12.0,6.0,79.68451690673828,82.0,76.0,3.0,0.0,0.5037579536437987,80.68040585517883,4.1613262654054886,84.84173212058433,79.18075585365294,3,3
1.0,811.0,6520.0,10.0,13.0,6.0,85.4005539417267,82.0,76.0,0.0,0.0,0.5374870300292968,86.35501599311827,10.17887019188531,96.53388618500358,84.86306691169739,3,3
1.0,811.0,6520.0,11.0,14.0,6.0,97.05102491378784,76.0,82.0,3.0,0.0,0.4900720119476318,98.05271601676941,4.912220259602918,102.96493627637233,96.56094884872435,3,3
1.0,811.0,6520.0,12.0,15.0,6.0,103.4619128704071,82.0,76.0,0.0,0.0,0.4837927818298339,104.47700881958009,7.924726509234032,112.40173532881413,102.97811603546143,3,3
1.0,811.0,6520.0,13.0,16.0,6.0,112.91445803642273,76.0,82.0,2.0,0.0,0.4879710674285889,113.91755104064941,4.3186953132245565,118.23624635387397,112.42648196220398,3,3
1.0,811.0,6520.0,14.0,17.0,6.0,118.82029795646669,76.0,82.0,0.0,0.0,0.561633825302124,119.75027394294737,5.805147596779539,125.55542153972691,118.25865602493286,3,3
1.0,811.0,6520.0,15.0,18.0,6.0,126.05321288108823,76.0,82.0,0.0,0.0,0.4795069694519042,127.07363390922545,9.232861353908511,136.30649526313397,125.57369589805604,3,3
1.0,811.0,6520.0,16.0,19.0,6.0,136.83963990211487,76.0,82.0,2.0,0.0,0.5171799659729005,137.82261085510254,6.065730159017201,143.88834101411973,136.32245302200317,3,3
1.0,811.0,6520.0,17.0,20.0,6.0,144.43661403656003,82.0,76.0,0.0,0.0,0.5313961505889893,145.40482997894287,7.264190835892697,152.66902081483556,143.90521383285522,3,3
1.0,811.0,6520.0,18.0,21.0,6.0,153.27738404273987,76.0,76.0,3.0,1.0,0.5905370712280275,154.18729400634766,6.478661871546091,160.66595587789374,152.68683886528015,3,3
1.0,811.0,6520.0,19.0,22.0,6.0,161.25751090049744,82.0,82.0,0.0,1.0,0.571624994277954,162.18551182746884,4.854805909964215,167.04031773743307,160.68588089942932,3,3
1.0,811.0,6520.0,20.0,23.0,6.0,167.63287901878354,82.0,82.0,0.0,1.0,0.5648930072784424,168.55943393707275,5.111477950856232,173.67091188792898,167.06798100471497,3,3
1.0,811.0,6520.0,21.0,24.0,6.0,174.2416169643402,76.0,76.0,2.0,1.0,0.5576119422912598,175.18474698066714,5.016357055836661,180.2011040365038,173.68400192260742,3,3
1.0,811.0,6520.0,22.0,25.0,6.0,180.80659985542297,82.0,82.0,0.0,1.0,0.5899209976196289,181.71615505218503,6.621133023762117,188.33728807594716,180.21667003631592,3,3
1.0,811.0,6520.0,23.0,0.0,7.0,188.85815691947934,82.0,76.0,2.0,0.0,0.4932658672332764,189.8563098907471,5.676197544257376,195.53250743500448,188.36488485336304,3,3
1.0,811.0,6520.0,24.0,1.0,7.0,196.18396496772766,82.0,76.0,3.0,0.0,0.637178897857666,197.04750990867612,9.530362141207462,206.57787204988358,195.5467858314514,3,3
1.0,811.0,6520.0,25.0,2.0,7.0,207.22960305213925,76.0,82.0,3.0,0.0,0.6338450908660888,208.09556794166565,5.5302264574093885,213.62579439907503,206.59574985504153,3,3
1.0,811.0,6520.0,26.0,3.0,7.0,214.18844294548035,82.0,76.0,0.0,0.0,0.5436229705810547,215.14474582672122,5.458704659289477,220.6034504860107,213.64481592178342,3,3
1.0,811.0,6520.0,27.0,4.0,7.0,221.2730770111084,76.0,82.0,1.0,0.0,0.6462769508361816,222.11918783187866,4.3680820826971125,226.48726991457576,220.62679195404047,3,3
1.0,811.0,6520.0,28.0,5.0,7.0,227.02115392684934,82.0,76.0,2.0,0.0,0.5113658905029296,228.0006968975067,4.93326191778875,232.93395881529545,226.50978302955627,3,3
1.0,811.0,6520.0,29.0,6.0,7.0,233.54067397117615,76.0,82.0,3.0,0.0,0.5815279483795167,234.45037603378287,6.338316211651899,240.78869224543476,232.95914387702942,3,3
1.0,811.0,6520.0,30.0,7.0,7.0,241.37070393562323,76.0,82.0,3.0,0.0,0.5629639625549318,242.30789899826047,11.82391124640578,254.13181024466624,240.80773282051086,3,3
1.0,811.0,6520.0,31.0,8.0,7.0,254.72816801071164,76.0,82.0,2.0,0.0,0.5722520351409912,255.6465549468994,7.2418486175892625,262.88840356448867,254.15591382980347,3,3
1.0,811.0,6520.0,32.0,9.0,7.0,263.597030878067,76.0,82.0,3.0,0.0,0.6930549144744873,264.40513801574707,4.428895026007253,268.8340330417543,262.9039719104767,3,3
1.0,811.0,6520.0,33.0,10.0,7.0,269.4258539676666,76.0,82.0,3.0,0.0,0.572563886642456,270.35417604446405,4.1011859132272255,274.45536195769125,268.85328483581543,3,3
1.0,811.0,6520.0,34.0,11.0,7.0,275.089478969574,82.0,76.0,0.0,0.0,0.6197910308837891,275.96861600875854,7.637192251900743,283.6058082606593,274.46968197822565,3,3
1.0,811.0,6520.0,35.0,12.0,7.0,284.15126299858093,76.0,82.0,2.0,0.0,0.533519983291626,285.11880683898926,13.80190653154915,298.9207133705384,283.61773705482483,3,3
1.0,811.0,6520.0,36.0,13.0,7.0,299.54991602897644,82.0,76.0,1.0,0.0,0.6005771160125734,300.44121789932245,6.833507041734225,307.27472494105666,298.94933485984797,3,3
1.0,811.0,6520.0,37.0,14.0,7.0,307.9045569896698,76.0,82.0,2.0,0.0,0.6063179969787598,308.78938698768616,6.5748868978178,315.36427388550396,307.2982349395752,3,3
1.0,811.0,6520.0,38.0,15.0,7.0,316.028520822525,76.0,82.0,1.0,0.0,0.6476850509643555,316.8803508281708,6.230109290434892,323.11046011860566,315.38083195686346,3,3
1.0,811.0,6520.0,39.0,16.0,7.0,323.67102098464966,82.0,76.0,0.0,0.0,0.541923999786377,324.62982392311096,4.422735457544632,329.05255938065557,323.1290898323059,3,3
1.0,811.0,6520.0,40.0,17.0,7.0,329.6380589008332,76.0,82.0,2.0,0.0,0.5596590042114258,330.57028985023493,4.949088628630774,335.5193784788657,329.07839798927307,3,3
1.0,811.0,6520.0,41.0,0.0,8.0,336.07275390625,76.0,76.0,0.0,1.0,0.5282838344573973,337.03543591499323,5.961480797272525,342.9969167122658,335.5444648265838,3,3
1.0,811.0,6520.0,42.0,1.0,8.0,343.5684118270874,82.0,82.0,0.0,1.0,0.5583970546722413,344.5095129013061,7.7017818714958866,352.211294772802,343.0100078582764,3,3
1.0,811.0,6520.0,43.0,2.0,8.0,352.93109488487244,82.0,76.0,0.0,0.0,0.7063701152801513,353.72470903396606,5.037901363219164,358.76261039718526,352.2247159481048,3,3
1.0,811.0,6520.0,44.0,3.0,8.0,359.3919630050659,82.0,82.0,0.0,1.0,0.60076904296875,360.2830560207367,4.9884391799395,365.2714952006762,358.79123902320856,3,3
1.0,811.0,6520.0,45.0,4.0,8.0,365.8667240142822,82.0,82.0,0.0,1.0,0.5762090682983398,366.78918099403376,7.299896600640947,374.0890775946747,365.29050993919367,3,3
1.0,811.0,6520.0,46.0,5.0,8.0,374.62464094161993,76.0,82.0,1.0,0.0,0.5194509029388428,375.6056518554688,5.113447468688012,380.71909932415684,374.1051819324493,3,3
1.0,811.0,6520.0,47.0,6.0,8.0,381.1842570304871,76.0,82.0,0.0,0.0,0.44559097290039057,382.23769593238836,10.053042987513187,392.29073891990157,380.73865699768066,3,3
1.0,811.0,6520.0,48.0,7.0,8.0,392.9350969791412,82.0,76.0,3.0,0.0,0.6323249340057372,393.80263304710394,5.324616503424629,399.1272495505286,392.3027670383453,3,3
1.0,811.0,6520.0,49.0,8.0,8.0,399.629714012146,76.0,82.0,0.0,0.0,0.4781529903411864,400.64397001266485,4.354205841053319,404.9981758537182,399.1515598297119,3,3
1.0,811.0,6520.0,50.0,9.0,8.0,405.5516049861908,76.0,82.0,2.0,0.0,0.5334210395812988,406.5177328586578,6.6209580166342406,413.138690875292,405.0181720256805,3,3
1.0,811.0,6520.0,51.0,10.0,8.0,413.6344799995423,76.0,82.0,4.0,0.0,0.4677948951721192,414.6585638523101,5.945844499510393,420.6044083518205,413.1666798591613,3,3
1.0,811.0,6520.0,52.0,11.0,8.0,421.14816188812256,82.0,76.0,2.0,0.0,0.5160868167877197,422.12380290031433,6.236815153201532,428.36061805351585,420.63207101821894,3,3
1.0,811.0,6520.0,53.0,12.0,8.0,428.98912596702576,76.0,82.0,4.0,0.0,0.607663869857788,429.8722388744353,7.597042522017219,437.4692813964525,428.38145589828486,3,3
1.0,811.0,6520.0,54.0,13.0,8.0,438.1005580425262,82.0,76.0,0.0,0.0,0.6045629978179932,438.9882819652557,13.093346110580962,452.08162807583665,437.4959969520569,3,3
1.0,811.0,6520.0,55.0,14.0,8.0,452.6341269016266,76.0,82.0,4.0,0.0,0.540475845336914,453.5937259197235,4.454506341268588,458.0482322609921,452.09364390373224,3,3
1.0,811.0,6520.0,56.0,15.0,8.0,458.62492299079895,82.0,76.0,2.0,0.0,0.5486259460449219,459.5683588981629,4.099191414310887,463.6675503124738,458.07629084587103,3,3
1.0,811.0,6520.0,57.0,16.0,8.0,464.26589584350586,76.0,82.0,2.0,0.0,0.5730080604553223,465.1836688518524,6.296326794408452,471.4799956462609,463.69288492202764,3,3
1.0,811.0,6520.0,58.0,17.0,8.0,472.0515010356903,82.0,76.0,3.0,0.0,0.5440351963043213,472.9996428489685,5.4932171269499515,478.49285997591846,471.5074598789215,3,3
1.0,811.0,6520.0,59.0,18.0,8.0,478.98024201393133,76.0,82.0,3.0,0.0,0.4732420444488525,480.0071749687195,7.0361596552646475,487.04333462398415,478.5069949626922,3,3
