onset	duration	trial_type	rt	accuracy	epoch_length	epoch_trial	epoch_number
1.817917823791503906e-02	1.499151945114135742e+00	0.000000000000000000e+00	2.910969257354736328e-01	1.000000000000000000e+00	2.700000000000000000e+01	1.600000000000000000e+01	5.000000000000000000e+00
1.018401002883911133e+01	1.496981143951416016e+00	1.000000000000000000e+00	5.669379234313964844e-01	0.000000000000000000e+00	2.700000000000000000e+01	1.700000000000000000e+01	5.000000000000000000e+00
1.809901714324951172e+01	1.499037981033325195e+00	2.000000000000000000e+00	5.297582149505615234e-01	1.000000000000000000e+00	2.700000000000000000e+01	1.800000000000000000e+01	5.000000000000000000e+00
2.618131804466247559e+01	1.497643947601318359e+00	3.000000000000000000e+00	5.479969978332519531e-01	1.000000000000000000e+00	2.700000000000000000e+01	1.900000000000000000e+01	5.000000000000000000e+00
3.403091907501220703e+01	1.497795104980468750e+00	4.000000000000000000e+00	5.802209377288818359e-01	1.000000000000000000e+00	2.700000000000000000e+01	2.000000000000000000e+01	5.000000000000000000e+00
4.432930302619934082e+01	1.497833967208862305e+00	5.000000000000000000e+00	6.066548824310302734e-01	1.000000000000000000e+00	2.700000000000000000e+01	2.100000000000000000e+01	5.000000000000000000e+00
5.206091213226318359e+01	1.498373985290527344e+00	6.000000000000000000e+00	5.187020301818847656e-01	1.000000000000000000e+00	2.700000000000000000e+01	2.200000000000000000e+01	5.000000000000000000e+00
6.337607097625732422e+01	1.498233079910278320e+00	7.000000000000000000e+00	5.720510482788085938e-01	0.000000000000000000e+00	2.700000000000000000e+01	2.300000000000000000e+01	5.000000000000000000e+00
7.112505817413330078e+01	1.497318983078002930e+00	8.000000000000000000e+00	5.888350009918212891e-01	0.000000000000000000e+00	2.700000000000000000e+01	2.400000000000000000e+01	5.000000000000000000e+00
7.964084315299987793e+01	1.497364997863769531e+00	9.000000000000000000e+00	6.545779705047607422e-01	1.000000000000000000e+00	2.700000000000000000e+01	2.500000000000000000e+01	5.000000000000000000e+00
8.857232713699340820e+01	1.498375892639160156e+00	1.000000000000000000e+01	5.961170196533203125e-01	1.000000000000000000e+00	2.700000000000000000e+01	2.600000000000000000e+01	5.000000000000000000e+00
9.835376715660095215e+01	1.499243974685668945e+00	1.100000000000000000e+01	5.972199440002441406e-01	1.000000000000000000e+00	3.200000000000000000e+01	0.000000000000000000e+00	6.000000000000000000e+00
1.064865801334381104e+02	1.497875928878784180e+00	1.200000000000000000e+01	6.030969619750976562e-01	1.000000000000000000e+00	3.200000000000000000e+01	1.000000000000000000e+00	6.000000000000000000e+00
1.173847789764404297e+02	1.497703075408935547e+00	1.300000000000000000e+01	5.664830207824707031e-01	1.000000000000000000e+00	3.200000000000000000e+01	2.000000000000000000e+00	6.000000000000000000e+00
1.250670430660247803e+02	1.497627019882202148e+00	1.400000000000000000e+01	6.121368408203125000e-01	1.000000000000000000e+00	3.200000000000000000e+01	3.000000000000000000e+00	6.000000000000000000e+00
1.329492151737213135e+02	1.497741937637329102e+00	1.500000000000000000e+01	6.425859928131103516e-01	0.000000000000000000e+00	3.200000000000000000e+01	4.000000000000000000e+00	6.000000000000000000e+00
1.410985729694366455e+02	1.497343063354492188e+00	1.600000000000000000e+01	6.440401077270507812e-01	0.000000000000000000e+00	3.200000000000000000e+01	5.000000000000000000e+00	6.000000000000000000e+00
1.494470701217651367e+02	1.497426986694335938e+00	1.700000000000000000e+01	5.770590305328369141e-01	1.000000000000000000e+00	3.200000000000000000e+01	6.000000000000000000e+00	6.000000000000000000e+00
1.577785730361938477e+02	1.498781919479370117e+00	1.800000000000000000e+01	5.434169769287109375e-01	0.000000000000000000e+00	3.200000000000000000e+01	7.000000000000000000e+00	6.000000000000000000e+00
1.674103710651397705e+02	1.498918056488037109e+00	1.900000000000000000e+01	5.513958930969238281e-01	1.000000000000000000e+00	3.200000000000000000e+01	8.000000000000000000e+00	6.000000000000000000e+00
1.751437470912933350e+02	1.497251033782958984e+00	2.000000000000000000e+01	5.685408115386962891e-01	1.000000000000000000e+00	3.200000000000000000e+01	9.000000000000000000e+00	6.000000000000000000e+00
1.836917951107025146e+02	1.497683048248291016e+00	2.100000000000000000e+01	6.514389514923095703e-01	1.000000000000000000e+00	3.200000000000000000e+01	1.000000000000000000e+01	6.000000000000000000e+00
1.935737271308898926e+02	1.497648954391479492e+00	2.200000000000000000e+01	6.091470718383789062e-01	0.000000000000000000e+00	3.200000000000000000e+01	1.100000000000000000e+01	6.000000000000000000e+00
2.016059889793395996e+02	1.497707128524780273e+00	2.300000000000000000e+01	6.045620441436767578e-01	1.000000000000000000e+00	3.200000000000000000e+01	1.200000000000000000e+01	6.000000000000000000e+00
2.105048990249633789e+02	1.497386932373046875e+00	2.400000000000000000e+01	5.851759910583496094e-01	1.000000000000000000e+00	3.200000000000000000e+01	1.300000000000000000e+01	6.000000000000000000e+00
2.203532810211181641e+02	1.497174024581909180e+00	2.500000000000000000e+01	6.146328449249267578e-01	1.000000000000000000e+00	3.200000000000000000e+01	1.400000000000000000e+01	6.000000000000000000e+00
2.293850841522216797e+02	1.497874975204467773e+00	2.600000000000000000e+01	5.736789703369140625e-01	1.000000000000000000e+00	3.200000000000000000e+01	1.500000000000000000e+01	6.000000000000000000e+00
2.394011909961700439e+02	1.497653007507324219e+00	2.700000000000000000e+01	5.852329730987548828e-01	0.000000000000000000e+00	3.200000000000000000e+01	1.600000000000000000e+01	6.000000000000000000e+00
2.481158590316772461e+02	1.497569084167480469e+00	2.800000000000000000e+01	6.360349655151367188e-01	0.000000000000000000e+00	3.200000000000000000e+01	1.700000000000000000e+01	6.000000000000000000e+00
2.566647670269012451e+02	1.497116088867187500e+00	2.900000000000000000e+01	6.157519817352294922e-01	1.000000000000000000e+00	3.200000000000000000e+01	1.800000000000000000e+01	6.000000000000000000e+00
2.658633611202239990e+02	1.497587919235229492e+00	3.000000000000000000e+01	5.470161437988281250e-01	1.000000000000000000e+00	3.200000000000000000e+01	1.900000000000000000e+01	6.000000000000000000e+00
2.741287031173706055e+02	1.498221874237060547e+00	3.100000000000000000e+01	5.223479270935058594e-01	1.000000000000000000e+00	3.200000000000000000e+01	2.000000000000000000e+01	6.000000000000000000e+00
2.824775280952453613e+02	1.497506856918334961e+00	3.200000000000000000e+01	7.223589420318603516e-01	0.000000000000000000e+00	3.200000000000000000e+01	2.100000000000000000e+01	6.000000000000000000e+00
2.906594331264495850e+02	1.497848033905029297e+00	3.300000000000000000e+01	6.750261783599853516e-01	1.000000000000000000e+00	3.200000000000000000e+01	2.200000000000000000e+01	6.000000000000000000e+00
2.990086309909820557e+02	1.497648000717163086e+00	3.400000000000000000e+01	6.995730400085449219e-01	1.000000000000000000e+00	3.200000000000000000e+01	2.300000000000000000e+01	6.000000000000000000e+00
3.073736860752105713e+02	1.498935937881469727e+00	3.500000000000000000e+01	7.503008842468261719e-01	1.000000000000000000e+00	3.200000000000000000e+01	2.400000000000000000e+01	6.000000000000000000e+00
3.172392261028289795e+02	1.498475074768066406e+00	3.600000000000000000e+01	5.842759609222412109e-01	1.000000000000000000e+00	3.200000000000000000e+01	2.500000000000000000e+01	6.000000000000000000e+00
3.248882761001586914e+02	1.497390985488891602e+00	3.700000000000000000e+01	6.200141906738281250e-01	0.000000000000000000e+00	3.200000000000000000e+01	2.600000000000000000e+01	6.000000000000000000e+00
3.342537801265716553e+02	1.497773885726928711e+00	3.800000000000000000e+01	5.951337814331054688e-01	1.000000000000000000e+00	3.200000000000000000e+01	2.700000000000000000e+01	6.000000000000000000e+00
3.440019121170043945e+02	1.497648954391479492e+00	3.900000000000000000e+01	6.287350654602050781e-01	1.000000000000000000e+00	3.200000000000000000e+01	2.800000000000000000e+01	6.000000000000000000e+00
3.516682140827178955e+02	1.497184991836547852e+00	4.000000000000000000e+01	5.841960906982421875e-01	1.000000000000000000e+00	3.200000000000000000e+01	2.900000000000000000e+01	6.000000000000000000e+00
3.598333899974822998e+02	1.497321128845214844e+00	4.100000000000000000e+01	5.188591480255126953e-01	1.000000000000000000e+00	3.200000000000000000e+01	3.000000000000000000e+01	6.000000000000000000e+00
3.706813480854034424e+02	1.497323989868164062e+00	4.200000000000000000e+01	6.112949848175048828e-01	0.000000000000000000e+00	3.200000000000000000e+01	3.100000000000000000e+01	6.000000000000000000e+00
3.787635591030120850e+02	1.497515916824340820e+00	4.300000000000000000e+01	6.569368839263916016e-01	0.000000000000000000e+00	2.700000000000000000e+01	0.000000000000000000e+00	7.000000000000000000e+00
3.875123350620269775e+02	1.497812032699584961e+00	4.400000000000000000e+01	6.118340492248535156e-01	0.000000000000000000e+00	2.700000000000000000e+01	1.000000000000000000e+00	7.000000000000000000e+00
3.983274021148681641e+02	1.497971057891845703e+00	4.500000000000000000e+01	6.074399948120117188e-01	1.000000000000000000e+00	2.700000000000000000e+01	2.000000000000000000e+00	7.000000000000000000e+00
4.078253591060638428e+02	1.498278856277465820e+00	4.600000000000000000e+01	6.142051219940185547e-01	0.000000000000000000e+00	2.700000000000000000e+01	3.000000000000000000e+00	7.000000000000000000e+00
4.159916710853576660e+02	1.497786045074462891e+00	4.700000000000000000e+01	6.235868930816650391e-01	0.000000000000000000e+00	2.700000000000000000e+01	4.000000000000000000e+00	7.000000000000000000e+00
4.237072501182556152e+02	1.498141050338745117e+00	4.800000000000000000e+01	6.338279247283935547e-01	1.000000000000000000e+00	2.700000000000000000e+01	5.000000000000000000e+00	7.000000000000000000e+00
4.344059240818023682e+02	1.497278928756713867e+00	4.900000000000000000e+01	6.766328811645507812e-01	0.000000000000000000e+00	2.700000000000000000e+01	6.000000000000000000e+00	7.000000000000000000e+00
4.422041940689086914e+02	1.498133897781372070e+00	5.000000000000000000e+01	5.281350612640380859e-01	0.000000000000000000e+00	2.700000000000000000e+01	7.000000000000000000e+00	7.000000000000000000e+00
4.499865350723266602e+02	1.497962951660156250e+00	5.100000000000000000e+01	6.436898708343505859e-01	1.000000000000000000e+00	2.700000000000000000e+01	8.000000000000000000e+00	7.000000000000000000e+00
4.611346111297607422e+02	1.497599840164184570e+00	5.200000000000000000e+01	5.790119171142578125e-01	0.000000000000000000e+00	2.700000000000000000e+01	9.000000000000000000e+00	7.000000000000000000e+00
4.701834640502929688e+02	1.497985124588012695e+00	5.300000000000000000e+01	6.528739929199218750e-01	0.000000000000000000e+00	2.700000000000000000e+01	1.000000000000000000e+01	7.000000000000000000e+00
4.788321251869201660e+02	1.498003959655761719e+00	5.400000000000000000e+01	6.958870887756347656e-01	0.000000000000000000e+00	2.700000000000000000e+01	1.100000000000000000e+01	7.000000000000000000e+00
4.883306851387023926e+02	1.498378992080688477e+00	5.500000000000000000e+01	6.620669364929199219e-01	0.000000000000000000e+00	2.700000000000000000e+01	1.200000000000000000e+01	7.000000000000000000e+00
4.966298501491546631e+02	1.497756958007812500e+00	5.600000000000000000e+01	6.076629161834716797e-01	0.000000000000000000e+00	2.700000000000000000e+01	1.300000000000000000e+01	7.000000000000000000e+00
5.069447941780090332e+02	1.497662782669067383e+00	5.700000000000000000e+01	5.813620090484619141e-01	1.000000000000000000e+00	2.700000000000000000e+01	1.400000000000000000e+01	7.000000000000000000e+00
5.168109390735626221e+02	1.496550083160400391e+00	5.800000000000000000e+01	7.028961181640625000e-01	1.000000000000000000e+00	2.700000000000000000e+01	1.500000000000000000e+01	7.000000000000000000e+00
5.248761940002441406e+02	1.497771024703979492e+00	5.900000000000000000e+01	7.024209499359130859e-01	0.000000000000000000e+00	2.700000000000000000e+01	1.600000000000000000e+01	7.000000000000000000e+00
