stim_onset, stim_duration, trial_type, rt, accuracy, epoch_length,epoch_trial, epoch_number
1.550507545471191406e-02	1.491370916366577148e+00	0.000000000000000000e+00	5.581789016723632812e-01	0.000000000000000000e+00	1.800000000000000000e+01	0.000000000000000000e+00	1.300000000000000000e+01
5.665136098861694336e+00	1.500365018844604492e+00	1.000000000000000000e+00	4.634289741516113281e-01	0.000000000000000000e+00	1.800000000000000000e+01	1.000000000000000000e+00	1.300000000000000000e+01
1.182262396812438965e+01	1.498973131179809570e+00	2.000000000000000000e+00	4.455530643463134766e-01	0.000000000000000000e+00	1.800000000000000000e+01	2.000000000000000000e+00	1.300000000000000000e+01
2.254569292068481445e+01	1.500047206878662109e+00	3.000000000000000000e+00	4.654569625854492188e-01	0.000000000000000000e+00	1.800000000000000000e+01	3.000000000000000000e+00	1.300000000000000000e+01
3.249411392211914062e+01	1.499499082565307617e+00	4.000000000000000000e+00	5.694460868835449219e-01	1.000000000000000000e+00	1.800000000000000000e+01	4.000000000000000000e+00	1.300000000000000000e+01
3.826012015342712402e+01	1.499629974365234375e+00	5.000000000000000000e+00	4.913358688354492188e-01	1.000000000000000000e+00	1.800000000000000000e+01	5.000000000000000000e+00	1.300000000000000000e+01
4.467603993415832520e+01	1.499373197555541992e+00	6.000000000000000000e+00	4.522769451141357422e-01	1.000000000000000000e+00	1.800000000000000000e+01	6.000000000000000000e+00	1.300000000000000000e+01
5.734121108055114746e+01	1.498659849166870117e+00	7.000000000000000000e+00	4.677410125732421875e-01	1.000000000000000000e+00	1.800000000000000000e+01	7.000000000000000000e+00	1.300000000000000000e+01
6.369782614707946777e+01	1.500236988067626953e+00	8.000000000000000000e+00	5.529167652130126953e-01	0.000000000000000000e+00	1.800000000000000000e+01	8.000000000000000000e+00	1.300000000000000000e+01
7.183882403373718262e+01	1.499669075012207031e+00	9.000000000000000000e+00	5.376310348510742188e-01	1.000000000000000000e+00	1.800000000000000000e+01	9.000000000000000000e+00	1.300000000000000000e+01
8.128754901885986328e+01	1.499238014221191406e+00	1.000000000000000000e+01	5.985729694366455078e-01	1.000000000000000000e+00	1.800000000000000000e+01	1.000000000000000000e+01	1.300000000000000000e+01
9.210255312919616699e+01	1.499457836151123047e+00	1.100000000000000000e+01	5.252468585968017578e-01	1.000000000000000000e+00	1.800000000000000000e+01	1.100000000000000000e+01	1.300000000000000000e+01
9.933439493179321289e+01	1.500180006027221680e+00	1.200000000000000000e+01	5.201439857482910156e-01	1.000000000000000000e+00	1.800000000000000000e+01	1.200000000000000000e+01	1.300000000000000000e+01
1.060583760738372803e+02	1.502866983413696289e+00	1.300000000000000000e+01	5.737819671630859375e-01	1.000000000000000000e+00	1.800000000000000000e+01	1.300000000000000000e+01	1.300000000000000000e+01
1.190259420871734619e+02	1.499997854232788086e+00	1.400000000000000000e+01	4.919381141662597656e-01	0.000000000000000000e+00	1.800000000000000000e+01	1.400000000000000000e+01	1.300000000000000000e+01
1.251082329750061035e+02	1.500087976455688477e+00	1.500000000000000000e+01	4.994552135467529297e-01	0.000000000000000000e+00	1.800000000000000000e+01	1.500000000000000000e+01	1.300000000000000000e+01
1.314491369724273682e+02	1.500133037567138672e+00	1.600000000000000000e+01	5.635800361633300781e-01	0.000000000000000000e+00	1.800000000000000000e+01	1.600000000000000000e+01	1.300000000000000000e+01
1.385227370262145996e+02	1.499915122985839844e+00	1.700000000000000000e+01	4.706530570983886719e-01	0.000000000000000000e+00	1.800000000000000000e+01	1.700000000000000000e+01	1.300000000000000000e+01
1.469808709621429443e+02	1.499269008636474609e+00	1.800000000000000000e+01	5.173971652984619141e-01	0.000000000000000000e+00	1.700000000000000000e+01	0.000000000000000000e+00	1.400000000000000000e+01
1.525635859966278076e+02	1.498487949371337891e+00	1.900000000000000000e+01	6.243889331817626953e-01	0.000000000000000000e+00	1.700000000000000000e+01	1.000000000000000000e+00	1.400000000000000000e+01
1.607623641490936279e+02	1.499906778335571289e+00	2.000000000000000000e+01	4.503920078277587891e-01	1.000000000000000000e+00	1.700000000000000000e+01	2.000000000000000000e+00	1.400000000000000000e+01
1.674359450340270996e+02	1.499490022659301758e+00	2.100000000000000000e+01	5.725860595703125000e-01	1.000000000000000000e+00	1.700000000000000000e+01	3.000000000000000000e+00	1.400000000000000000e+01
1.770594389438629150e+02	1.499837160110473633e+00	2.200000000000000000e+01	4.998590946197509766e-01	1.000000000000000000e+00	1.700000000000000000e+01	4.000000000000000000e+00	1.400000000000000000e+01
1.897580111026763916e+02	1.500095844268798828e+00	2.300000000000000000e+01	4.449119567871093750e-01	1.000000000000000000e+00	1.700000000000000000e+01	5.000000000000000000e+00	1.400000000000000000e+01
1.959483549594879150e+02	1.500236988067626953e+00	2.400000000000000000e+01	5.535490512847900391e-01	0.000000000000000000e+00	1.700000000000000000e+01	6.000000000000000000e+00	1.400000000000000000e+01
2.116718060970306396e+02	1.498962879180908203e+00	2.500000000000000000e+01	4.817099571228027344e-01	1.000000000000000000e+00	1.700000000000000000e+01	7.000000000000000000e+00	1.400000000000000000e+01
2.198700981140136719e+02	1.500052928924560547e+00	2.600000000000000000e+01	5.852320194244384766e-01	1.000000000000000000e+00	1.700000000000000000e+01	8.000000000000000000e+00	1.400000000000000000e+01
2.266271791458129883e+02	1.500045776367187500e+00	2.700000000000000000e+01	5.757260322570800781e-01	0.000000000000000000e+00	1.700000000000000000e+01	9.000000000000000000e+00	1.400000000000000000e+01
2.346016919612884521e+02	1.499464988708496094e+00	2.800000000000000000e+01	5.631229877471923828e-01	0.000000000000000000e+00	1.700000000000000000e+01	1.000000000000000000e+01	1.400000000000000000e+01
2.413749699592590332e+02	1.499768018722534180e+00	2.900000000000000000e+01	5.586528778076171875e-01	1.000000000000000000e+00	1.700000000000000000e+01	1.100000000000000000e+01	1.400000000000000000e+01
2.492405190467834473e+02	1.500295877456665039e+00	3.000000000000000000e+01	5.388851165771484375e-01	1.000000000000000000e+00	1.700000000000000000e+01	1.200000000000000000e+01	1.400000000000000000e+01
2.564734311103820801e+02	1.499207973480224609e+00	3.100000000000000000e+01	5.138249397277832031e-01	1.000000000000000000e+00	1.700000000000000000e+01	1.300000000000000000e+01	1.400000000000000000e+01
2.633636629581451416e+02	1.500310182571411133e+00	3.200000000000000000e+01	5.603260993957519531e-01	1.000000000000000000e+00	1.700000000000000000e+01	1.400000000000000000e+01	1.400000000000000000e+01
2.725040609836578369e+02	1.499655008316040039e+00	3.300000000000000000e+01	5.487308502197265625e-01	1.000000000000000000e+00	1.700000000000000000e+01	1.500000000000000000e+01	1.400000000000000000e+01
2.784948470592498779e+02	1.499496936798095703e+00	3.400000000000000000e+01	5.627529621124267578e-01	1.000000000000000000e+00	1.700000000000000000e+01	1.600000000000000000e+01	1.400000000000000000e+01
2.864944880008697510e+02	1.499094009399414062e+00	3.500000000000000000e+01	4.791879653930664062e-01	0.000000000000000000e+00	2.500000000000000000e+01	0.000000000000000000e+00	1.500000000000000000e+01
2.960170969963073730e+02	1.500496149063110352e+00	3.600000000000000000e+01	4.741070270538330078e-01	0.000000000000000000e+00	2.500000000000000000e+01	1.000000000000000000e+00	1.500000000000000000e+01
3.054741859436035156e+02	1.500429153442382812e+00	3.700000000000000000e+01	6.088550090789794922e-01	1.000000000000000000e+00	2.500000000000000000e+01	2.000000000000000000e+00	1.500000000000000000e+01
3.132231330871582031e+02	1.500351905822753906e+00	3.800000000000000000e+01	4.946711063385009766e-01	1.000000000000000000e+00	2.500000000000000000e+01	3.000000000000000000e+00	1.500000000000000000e+01
3.223140659332275391e+02	1.499637126922607422e+00	3.900000000000000000e+01	6.534249782562255859e-01	1.000000000000000000e+00	2.500000000000000000e+01	4.000000000000000000e+00	1.500000000000000000e+01
3.296291720867156982e+02	1.500038862228393555e+00	4.000000000000000000e+01	4.582800865173339844e-01	1.000000000000000000e+00	2.500000000000000000e+01	5.000000000000000000e+00	1.500000000000000000e+01
3.370703060626983643e+02	1.498849868774414062e+00	4.100000000000000000e+01	6.697781085968017578e-01	1.000000000000000000e+00	2.500000000000000000e+01	6.000000000000000000e+00	1.500000000000000000e+01
3.495435500144958496e+02	1.499670982360839844e+00	4.200000000000000000e+01	5.462210178375244141e-01	1.000000000000000000e+00	2.500000000000000000e+01	7.000000000000000000e+00	1.500000000000000000e+01
3.554755139350891113e+02	1.500555992126464844e+00	4.300000000000000000e+01	6.702420711517333984e-01	1.000000000000000000e+00	2.500000000000000000e+01	8.000000000000000000e+00	1.500000000000000000e+01
3.615672459602355957e+02	1.498763084411621094e+00	4.400000000000000000e+01	6.682269573211669922e-01	1.000000000000000000e+00	2.500000000000000000e+01	9.000000000000000000e+00	1.500000000000000000e+01
3.689153580665588379e+02	1.499899864196777344e+00	4.500000000000000000e+01	5.861120223999023438e-01	0.000000000000000000e+00	2.500000000000000000e+01	1.000000000000000000e+01	1.500000000000000000e+01
3.766647300720214844e+02	1.498831987380981445e+00	4.600000000000000000e+01	4.633188247680664062e-01	1.000000000000000000e+00	2.500000000000000000e+01	1.100000000000000000e+01	1.500000000000000000e+01
3.833304350376129150e+02	1.499665975570678711e+00	4.700000000000000000e+01	5.813608169555664062e-01	1.000000000000000000e+00	2.500000000000000000e+01	1.200000000000000000e+01	1.500000000000000000e+01
3.924624240398406982e+02	1.499329090118408203e+00	4.800000000000000000e+01	4.991888999938964844e-01	0.000000000000000000e+00	2.500000000000000000e+01	1.300000000000000000e+01	1.500000000000000000e+01
3.992694461345672607e+02	1.499862909317016602e+00	4.900000000000000000e+01	5.099270343780517578e-01	1.000000000000000000e+00	2.500000000000000000e+01	1.400000000000000000e+01	1.500000000000000000e+01
4.082430961132049561e+02	1.499650955200195312e+00	5.000000000000000000e+01	5.090649127960205078e-01	1.000000000000000000e+00	2.500000000000000000e+01	1.500000000000000000e+01	1.500000000000000000e+01
4.176340510845184326e+02	1.498689889907836914e+00	5.100000000000000000e+01	5.629518032073974609e-01	0.000000000000000000e+00	2.500000000000000000e+01	1.600000000000000000e+01	1.500000000000000000e+01
4.238072171211242676e+02	1.500093936920166016e+00	5.200000000000000000e+01	5.587608814239501953e-01	1.000000000000000000e+00	2.500000000000000000e+01	1.700000000000000000e+01	1.500000000000000000e+01
4.297483270168304443e+02	1.499998092651367188e+00	5.300000000000000000e+01	4.414660930633544922e-01	1.000000000000000000e+00	2.500000000000000000e+01	1.800000000000000000e+01	1.500000000000000000e+01
4.387226269245147705e+02	1.499238014221191406e+00	5.400000000000000000e+01	6.017169952392578125e-01	1.000000000000000000e+00	2.500000000000000000e+01	1.900000000000000000e+01	1.500000000000000000e+01
4.482289021015167236e+02	1.499862909317016602e+00	5.500000000000000000e+01	4.281530380249023438e-01	1.000000000000000000e+00	2.500000000000000000e+01	2.000000000000000000e+01	1.500000000000000000e+01
4.637765469551086426e+02	1.500364065170288086e+00	5.600000000000000000e+01	4.840900897979736328e-01	1.000000000000000000e+00	2.500000000000000000e+01	2.100000000000000000e+01	1.500000000000000000e+01
4.717182779312133789e+02	1.498807191848754883e+00	5.700000000000000000e+01	5.472710132598876953e-01	1.000000000000000000e+00	2.500000000000000000e+01	2.200000000000000000e+01	1.500000000000000000e+01
4.804416310787200928e+02	1.499529838562011719e+00	5.800000000000000000e+01	5.018851757049560547e-01	1.000000000000000000e+00	2.500000000000000000e+01	2.300000000000000000e+01	1.500000000000000000e+01
4.877496230602264404e+02	1.499146938323974609e+00	5.900000000000000000e+01	4.225099086761474609e-01	1.000000000000000000e+00	2.500000000000000000e+01	2.400000000000000000e+01	1.500000000000000000e+01
