stim_onset, stim_duration, trial_type, rt, accuracy, epoch_length,epoch_trial, epoch_number
1.377582550048828125e-02	1.491966009140014648e+00	0.000000000000000000e+00	4.777009487152099609e-01	0.000000000000000000e+00	1.800000000000000000e+01	7.000000000000000000e+00	3.000000000000000000e+00
7.255316972732543945e+00	1.499857902526855469e+00	1.000000000000000000e+00	4.619600772857666016e-01	0.000000000000000000e+00	1.800000000000000000e+01	8.000000000000000000e+00	3.000000000000000000e+00
1.315439200401306152e+01	1.500025987625122070e+00	2.000000000000000000e+00	6.466100215911865234e-01	1.000000000000000000e+00	1.800000000000000000e+01	9.000000000000000000e+00	3.000000000000000000e+00
2.281116795539855957e+01	1.499372959136962891e+00	3.000000000000000000e+00	5.075950622558593750e-01	0.000000000000000000e+00	1.800000000000000000e+01	1.000000000000000000e+01	3.000000000000000000e+00
2.961890792846679688e+01	1.499212980270385742e+00	4.000000000000000000e+00	4.844429492950439453e-01	0.000000000000000000e+00	1.800000000000000000e+01	1.100000000000000000e+01	3.000000000000000000e+00
3.522505092620849609e+01	1.500122070312500000e+00	5.000000000000000000e+00	5.981869697570800781e-01	0.000000000000000000e+00	1.800000000000000000e+01	1.200000000000000000e+01	3.000000000000000000e+00
4.725674891471862793e+01	1.492440938949584961e+00	6.000000000000000000e+00	6.701631546020507812e-01	0.000000000000000000e+00	1.800000000000000000e+01	1.300000000000000000e+01	3.000000000000000000e+00
5.385640096664428711e+01	1.491193056106567383e+00	7.000000000000000000e+00	4.932320117950439453e-01	0.000000000000000000e+00	1.800000000000000000e+01	1.400000000000000000e+01	3.000000000000000000e+00
6.643706393241882324e+01	1.491674900054931641e+00	8.000000000000000000e+00	4.872431755065917969e-01	0.000000000000000000e+00	1.800000000000000000e+01	1.500000000000000000e+01	3.000000000000000000e+00
7.286133694648742676e+01	1.499922037124633789e+00	9.000000000000000000e+00	4.427919387817382812e-01	0.000000000000000000e+00	1.800000000000000000e+01	1.600000000000000000e+01	3.000000000000000000e+00
8.047680091857910156e+01	1.500814914703369141e+00	1.000000000000000000e+01	5.001389980316162109e-01	0.000000000000000000e+00	1.800000000000000000e+01	1.700000000000000000e+01	3.000000000000000000e+00
8.786777687072753906e+01	1.500088930130004883e+00	1.100000000000000000e+01	6.586928367614746094e-01	0.000000000000000000e+00	2.200000000000000000e+01	0.000000000000000000e+00	4.000000000000000000e+00
9.385064101219177246e+01	1.490463018417358398e+00	1.200000000000000000e+01	5.849318504333496094e-01	0.000000000000000000e+00	2.200000000000000000e+01	1.000000000000000000e+00	4.000000000000000000e+00
1.008080239295959473e+02	1.499727010726928711e+00	1.300000000000000000e+01	5.241730213165283203e-01	0.000000000000000000e+00	2.200000000000000000e+01	2.000000000000000000e+00	4.000000000000000000e+00
1.112478249073028564e+02	1.491164922714233398e+00	1.400000000000000000e+01	5.899209976196289062e-01	0.000000000000000000e+00	2.200000000000000000e+01	3.000000000000000000e+00	4.000000000000000000e+00
1.174467928409576416e+02	1.500131130218505859e+00	1.500000000000000000e+01	5.089831352233886719e-01	0.000000000000000000e+00	2.200000000000000000e+01	4.000000000000000000e+00	4.000000000000000000e+00
1.268958549499511719e+02	1.499955892562866211e+00	1.600000000000000000e+01	5.375580787658691406e-01	0.000000000000000000e+00	2.200000000000000000e+01	5.000000000000000000e+00	4.000000000000000000e+00
1.332611060142517090e+02	1.499861001968383789e+00	1.700000000000000000e+01	4.110770225524902344e-01	0.000000000000000000e+00	2.200000000000000000e+01	6.000000000000000000e+00	4.000000000000000000e+00
1.398765799999237061e+02	1.500306844711303711e+00	1.800000000000000000e+01	6.002960205078125000e-01	0.000000000000000000e+00	2.200000000000000000e+01	7.000000000000000000e+00	4.000000000000000000e+00
1.460173788070678711e+02	1.499971151351928711e+00	1.900000000000000000e+01	6.804769039154052734e-01	0.000000000000000000e+00	2.200000000000000000e+01	8.000000000000000000e+00	4.000000000000000000e+00
1.613155670166015625e+02	1.499751806259155273e+00	2.000000000000000000e+01	4.205710887908935547e-01	1.000000000000000000e+00	2.200000000000000000e+01	9.000000000000000000e+00	4.000000000000000000e+00
1.733387668132781982e+02	1.500136137008666992e+00	2.100000000000000000e+01	4.589109420776367188e-01	0.000000000000000000e+00	2.200000000000000000e+01	1.000000000000000000e+01	4.000000000000000000e+00
1.803041238784790039e+02	1.500254154205322266e+00	2.200000000000000000e+01	5.945789813995361328e-01	0.000000000000000000e+00	2.200000000000000000e+01	1.100000000000000000e+01	4.000000000000000000e+00
1.887118709087371826e+02	1.498651027679443359e+00	2.300000000000000000e+01	5.543351173400878906e-01	0.000000000000000000e+00	2.200000000000000000e+01	1.200000000000000000e+01	4.000000000000000000e+00
1.959851179122924805e+02	1.499696969985961914e+00	2.400000000000000000e+01	5.071821212768554688e-01	0.000000000000000000e+00	2.200000000000000000e+01	1.300000000000000000e+01	4.000000000000000000e+00
2.026177229881286621e+02	1.499301910400390625e+00	2.500000000000000000e+01	5.513908863067626953e-01	1.000000000000000000e+00	2.200000000000000000e+01	1.400000000000000000e+01	4.000000000000000000e+00
2.107994008064270020e+02	1.501005172729492188e+00	2.600000000000000000e+01	5.391199588775634766e-01	1.000000000000000000e+00	2.200000000000000000e+01	1.500000000000000000e+01	4.000000000000000000e+00
2.163987789154052734e+02	1.499802112579345703e+00	2.700000000000000000e+01	4.868350028991699219e-01	1.000000000000000000e+00	2.200000000000000000e+01	1.600000000000000000e+01	4.000000000000000000e+00
2.239401109218597412e+02	1.499438047409057617e+00	2.800000000000000000e+01	4.849901199340820312e-01	1.000000000000000000e+00	2.200000000000000000e+01	1.700000000000000000e+01	4.000000000000000000e+00
2.364957079887390137e+02	1.500355005264282227e+00	2.900000000000000000e+01	5.428831577301025391e-01	1.000000000000000000e+00	2.200000000000000000e+01	1.800000000000000000e+01	4.000000000000000000e+00
2.472863309383392334e+02	1.499448060989379883e+00	3.000000000000000000e+01	5.860998630523681641e-01	0.000000000000000000e+00	2.200000000000000000e+01	1.900000000000000000e+01	4.000000000000000000e+00
2.582842829227447510e+02	1.500014066696166992e+00	3.100000000000000000e+01	5.637400150299072266e-01	1.000000000000000000e+00	2.200000000000000000e+01	2.000000000000000000e+01	4.000000000000000000e+00
2.651997158527374268e+02	1.495238065719604492e+00	3.200000000000000000e+01	5.842192173004150391e-01	0.000000000000000000e+00	2.200000000000000000e+01	2.100000000000000000e+01	4.000000000000000000e+00
2.747655448913574219e+02	1.499444961547851562e+00	3.300000000000000000e+01	4.761941432952880859e-01	1.000000000000000000e+00	1.900000000000000000e+01	0.000000000000000000e+00	5.000000000000000000e+00
2.803061239719390869e+02	1.491335868835449219e+00	3.400000000000000000e+01	5.500969886779785156e-01	1.000000000000000000e+00	1.900000000000000000e+01	1.000000000000000000e+00	5.000000000000000000e+00
2.861135118007659912e+02	1.499540090560913086e+00	3.500000000000000000e+01	4.845309257507324219e-01	0.000000000000000000e+00	1.900000000000000000e+01	2.000000000000000000e+00	5.000000000000000000e+00
3.004864258766174316e+02	1.491091966629028320e+00	3.600000000000000000e+01	4.884271621704101562e-01	1.000000000000000000e+00	1.900000000000000000e+01	3.000000000000000000e+00	5.000000000000000000e+00
3.070181679725646973e+02	1.501021862030029297e+00	3.700000000000000000e+01	5.382471084594726562e-01	0.000000000000000000e+00	1.900000000000000000e+01	4.000000000000000000e+00	5.000000000000000000e+00
3.154925119876861572e+02	1.499727010726928711e+00	3.800000000000000000e+01	5.267560482025146484e-01	0.000000000000000000e+00	1.900000000000000000e+01	5.000000000000000000e+00	5.000000000000000000e+00
3.225746178627014160e+02	1.499953031539916992e+00	3.900000000000000000e+01	5.654060840606689453e-01	0.000000000000000000e+00	1.900000000000000000e+01	6.000000000000000000e+00	5.000000000000000000e+00
3.284860069751739502e+02	1.496098995208740234e+00	4.000000000000000000e+01	5.686318874359130859e-01	0.000000000000000000e+00	1.900000000000000000e+01	7.000000000000000000e+00	5.000000000000000000e+00
3.361810569763183594e+02	1.491283893585205078e+00	4.100000000000000000e+01	4.834859371185302734e-01	0.000000000000000000e+00	1.900000000000000000e+01	8.000000000000000000e+00	5.000000000000000000e+00
3.424138119220733643e+02	1.500120878219604492e+00	4.200000000000000000e+01	5.345950126647949219e-01	1.000000000000000000e+00	1.900000000000000000e+01	9.000000000000000000e+00	5.000000000000000000e+00
3.503704388141632080e+02	1.500500202178955078e+00	4.300000000000000000e+01	4.808528423309326172e-01	0.000000000000000000e+00	1.900000000000000000e+01	1.000000000000000000e+01	5.000000000000000000e+00
3.628189888000488281e+02	1.500188112258911133e+00	4.400000000000000000e+01	5.608220100402832031e-01	0.000000000000000000e+00	1.900000000000000000e+01	1.100000000000000000e+01	5.000000000000000000e+00
3.724177639484405518e+02	1.499490976333618164e+00	4.500000000000000000e+01	5.366921424865722656e-01	1.000000000000000000e+00	1.900000000000000000e+01	1.200000000000000000e+01	5.000000000000000000e+00
3.798335947990417480e+02	1.499338150024414062e+00	4.600000000000000000e+01	4.684410095214843750e-01	0.000000000000000000e+00	1.900000000000000000e+01	1.300000000000000000e+01	5.000000000000000000e+00
3.876649279594421387e+02	1.500735044479370117e+00	4.700000000000000000e+01	6.098549365997314453e-01	0.000000000000000000e+00	1.900000000000000000e+01	1.400000000000000000e+01	5.000000000000000000e+00
3.943481760025024414e+02	1.498438835144042969e+00	4.800000000000000000e+01	4.794988632202148438e-01	0.000000000000000000e+00	1.900000000000000000e+01	1.500000000000000000e+01	5.000000000000000000e+00
4.020381560325622559e+02	1.499818801879882812e+00	4.900000000000000000e+01	5.163130760192871094e-01	0.000000000000000000e+00	1.900000000000000000e+01	1.600000000000000000e+01	5.000000000000000000e+00
4.193775949478149414e+02	1.498939990997314453e+00	5.000000000000000000e+01	5.012638568878173828e-01	0.000000000000000000e+00	1.900000000000000000e+01	1.700000000000000000e+01	5.000000000000000000e+00
4.276093068122863770e+02	1.500840187072753906e+00	5.100000000000000000e+01	4.711320400238037109e-01	0.000000000000000000e+00	1.900000000000000000e+01	1.800000000000000000e+01	5.000000000000000000e+00
4.335750319957733154e+02	1.499838829040527344e+00	5.200000000000000000e+01	5.192520618438720703e-01	1.000000000000000000e+00	2.100000000000000000e+01	0.000000000000000000e+00	6.000000000000000000e+00
4.397745218276977539e+02	1.498732089996337891e+00	5.300000000000000000e+01	5.977151393890380859e-01	0.000000000000000000e+00	2.100000000000000000e+01	1.000000000000000000e+00	6.000000000000000000e+00
4.457475388050079346e+02	1.500396013259887695e+00	5.400000000000000000e+01	4.426019191741943359e-01	0.000000000000000000e+00	2.100000000000000000e+01	2.000000000000000000e+00	6.000000000000000000e+00
4.525301778316497803e+02	1.500885009765625000e+00	5.500000000000000000e+01	4.814147949218750000e-01	0.000000000000000000e+00	2.100000000000000000e+01	3.000000000000000000e+00	6.000000000000000000e+00
4.642289748191833496e+02	1.499652147293090820e+00	5.600000000000000000e+01	5.355739593505859375e-01	0.000000000000000000e+00	2.100000000000000000e+01	4.000000000000000000e+00	6.000000000000000000e+00
4.703205859661102295e+02	1.498548030853271484e+00	5.700000000000000000e+01	5.377340316772460938e-01	0.000000000000000000e+00	2.100000000000000000e+01	5.000000000000000000e+00	6.000000000000000000e+00
4.774516258239746094e+02	1.500920057296752930e+00	5.800000000000000000e+01	5.694241523742675781e-01	0.000000000000000000e+00	2.100000000000000000e+01	6.000000000000000000e+00	6.000000000000000000e+00
4.836262998580932617e+02	1.492254972457885742e+00	5.900000000000000000e+01	6.374380588531494141e-01	0.000000000000000000e+00	2.100000000000000000e+01	7.000000000000000000e+00	6.000000000000000000e+00
