reward_code,subj_id,condition,trial,epoch_trial,epoch_number,button_press,LR_solution,LR,reward,p_accuracy,rt,trial_end,iti_length,iti_end,stim_onset,session_n,run_n
1.0,813.0,6520.0,0.0,7.0,11.0,0.5734879970550537,82.0,82.0,0.0,1.0,0.5577528476715088,1.5071160793304446,6.830602832,8.337718911330445,0.015727996826171875,6,4
1.0,813.0,6520.0,1.0,8.0,11.0,8.783441066741942,76.0,82.0,0.0,0.0,0.4268231391906738,9.856807947158813,6.510286276,16.367094223158816,8.356613874435425,6,4
1.0,813.0,6520.0,2.0,9.0,11.0,17.001174926757812,82.0,82.0,1.0,1.0,0.6123449802398682,17.880481004714962,9.176654879,27.057135883714963,16.388828992843628,6,4
1.0,813.0,6520.0,3.0,10.0,11.0,27.592621088027954,76.0,82.0,0.0,0.0,0.5224380493164064,28.570298910140988,9.379149067,37.94944797714099,27.07017588615417,6,4
1.0,813.0,6520.0,4.0,11.0,11.0,38.443243980407715,82.0,82.0,0.0,1.0,0.4737977981567384,39.46931600570679,8.249659814999998,47.71897582070679,37.9694390296936,6,4
1.0,813.0,6520.0,5.0,12.0,11.0,48.20398902893065,76.0,82.0,0.0,0.0,0.469419002532959,49.23426294326783,8.106125763999998,57.34038870726783,47.73456406593322,6,4
1.0,813.0,6520.0,6.0,13.0,11.0,57.93547606468201,76.0,76.0,2.0,1.0,0.5694599151611329,58.85748600959777,6.351721296999999,65.20920730659778,57.36600089073181,6,4
1.0,813.0,6520.0,7.0,14.0,11.0,65.78742694854735,82.0,82.0,3.0,1.0,0.5558350086212159,66.7236180305481,6.394658274,73.11827630454809,65.23159003257753,6,4
1.0,813.0,6520.0,8.0,15.0,11.0,73.65105509757996,82.0,76.0,4.0,0.0,0.5199029445648193,74.63100790977478,6.118962944999999,80.74997085477477,73.13114595413208,6,4
1.0,813.0,6520.0,9.0,16.0,11.0,81.19085192680359,76.0,82.0,2.0,0.0,0.4285581111907959,82.26278400421143,8.225208136,90.48799214021142,80.76229095458984,6,4
1.0,813.0,6520.0,10.0,17.0,11.0,91.03538608551024,82.0,76.0,0.0,0.0,0.5240468978881836,92.00314593315123,6.317521856,98.32066778915123,90.51133608818054,6,4
1.0,813.0,6520.0,11.0,18.0,11.0,98.71939802169803,82.0,82.0,2.0,1.0,0.3759000301361084,99.83506894111632,7.028919837999999,106.86398877911631,98.34349107742308,6,4
1.0,813.0,6520.0,12.0,19.0,11.0,107.39205598831175,76.0,76.0,3.0,1.0,0.4999840259552001,108.38355398178099,7.501984415,115.88553839678099,106.89208793640135,6,4
1.0,813.0,6520.0,13.0,20.0,11.0,116.39094090461732,76.0,76.0,0.0,1.0,0.4833760261535645,117.3993189334869,8.342266416000001,125.7415853494869,115.9075620174408,6,4
1.0,813.0,6520.0,14.0,21.0,11.0,126.23947095870973,82.0,76.0,2.0,0.0,0.4833028316497802,127.25664210319519,6.807756658,134.06439876119518,125.75615906715392,6,4
1.0,813.0,6520.0,15.0,22.0,11.0,134.63513803482056,76.0,82.0,0.0,0.0,0.5462820529937744,135.57965707778928,8.796708647,144.37636572478928,134.0888519287109,6,4
1.0,813.0,6520.0,16.0,0.0,12.0,144.8987250328064,82.0,76.0,4.0,0.0,0.4952280521392822,145.895299911499,6.660214379000001,152.555514290499,144.40349197387695,6,4
1.0,813.0,6520.0,17.0,1.0,12.0,153.038507938385,76.0,76.0,3.0,1.0,0.4696729183197021,154.06873297691342,9.794354736,163.86308771291343,152.5688309669495,6,4
1.0,813.0,6520.0,18.0,2.0,12.0,164.2912559509277,82.0,82.0,0.0,1.0,0.40666890144348145,165.37526106834412,6.830287768,172.20554883634412,163.88458108901978,6,4
1.0,813.0,6520.0,19.0,3.0,12.0,172.6978600025177,82.0,76.0,0.0,0.0,0.4648859500885011,173.72455310821533,6.629621234,180.35417434221534,172.232971906662,6,4
1.0,813.0,6520.0,20.0,4.0,12.0,180.77950787544248,76.0,82.0,3.0,0.0,0.397205114364624,181.87378692626956,6.737836668999999,188.61162359526955,180.38230109214783,6,4
1.0,813.0,6520.0,21.0,5.0,12.0,189.13443708419803,76.0,76.0,4.0,1.0,0.5034670829772948,190.13121795654297,6.214641238,196.34585919454298,188.63096594810483,6,4
1.0,813.0,6520.0,22.0,6.0,12.0,196.8733639717102,82.0,76.0,2.0,0.0,0.5111508369445801,197.8628509044647,6.253368926,204.1162198304647,196.36220788955686,6,4
1.0,813.0,6520.0,23.0,7.0,12.0,204.6941039562225,76.0,82.0,0.0,0.0,0.5656208992004395,205.62824010849,7.115323056,212.74356316448998,204.1284749507904,6,4
1.0,813.0,6520.0,24.0,8.0,12.0,213.33264088630682,76.0,76.0,2.0,1.0,0.5726449489593506,214.2605240345001,7.217684582,221.4782086165001,212.7599899768829,6,4
1.0,813.0,6520.0,25.0,9.0,12.0,221.99661707878113,82.0,82.0,0.0,1.0,0.5040628910064698,222.99262309074402,6.197338695000001,229.18996178574403,221.4925479888916,6,4
1.0,813.0,6520.0,26.0,10.0,12.0,229.66615200042725,82.0,82.0,0.0,1.0,0.4579370021820068,230.70810008049008,7.521907167,238.23000724749008,229.20820808410645,6,4
1.0,813.0,6520.0,27.0,11.0,12.0,238.74275302886957,76.0,82.0,2.0,0.0,0.4858899116516113,239.74818706512445,7.186002987000001,246.93419005212445,238.2568600177765,6,4
1.0,813.0,6520.0,28.0,12.0,12.0,247.41553902626043,76.0,82.0,3.0,0.0,0.460474967956543,248.44788503646848,7.833443911,256.28132894746847,246.95509600639343,6,4
1.0,813.0,6520.0,29.0,13.0,12.0,256.84206390380854,76.0,82.0,2.0,0.0,0.5381338596343994,257.79543995857244,6.551136357000002,264.34657631557246,256.30393004417414,6,4
1.0,813.0,6520.0,30.0,14.0,12.0,265.05497097969055,76.0,82.0,0.0,0.0,0.6847109794616699,265.86077308654785,6.8253593409999995,272.6861324275479,264.3702549934387,6,4
1.0,813.0,6520.0,31.0,15.0,12.0,273.2306580543518,76.0,82.0,0.0,0.0,0.5290520191192626,274.20248103141785,7.966205196,282.1686862274178,272.70160102844244,6,4
1.0,813.0,6520.0,32.0,16.0,12.0,282.60231399536127,82.0,82.0,2.0,1.0,0.4182991981506348,283.6833200454712,8.316670306,291.9999903514712,282.1840078830719,6,4
1.0,813.0,6520.0,33.0,17.0,12.0,292.5281500816345,82.0,82.0,3.0,1.0,0.5128381252288818,293.51519489288324,6.5996902660000005,300.1148851588832,292.01530599594116,6,4
1.0,813.0,6520.0,34.0,18.0,12.0,300.5418040752411,76.0,82.0,3.0,0.0,0.41039299964904796,301.6310949325561,6.1421443610000015,307.7732392935561,300.1314060688018,6,4
1.0,813.0,6520.0,35.0,19.0,12.0,308.5471088886261,82.0,,0.0,,,309.28800988197327,6.996471843999999,316.28448172597325,307.7967009544372,6,4
1.0,813.0,6520.0,36.0,0.0,13.0,316.8132269382477,82.0,82.0,4.0,1.0,0.5009970664978028,317.80384492874146,7.37655801,325.18040293874145,316.3122260570526,6,4
1.0,813.0,6520.0,37.0,1.0,13.0,325.78306198120123,76.0,82.0,0.0,0.0,0.5880661010742188,326.69330000877386,6.198782992999998,332.89208300177387,325.19499087333685,6,4
1.0,813.0,6520.0,38.0,2.0,13.0,333.34162187576294,82.0,82.0,4.0,1.0,0.4318878650665283,334.4099190235137,6.8236166030000005,341.2335356265137,332.90972900390625,6,4
1.0,813.0,6520.0,39.0,3.0,13.0,341.79041695594793,82.0,82.0,0.0,1.0,0.5319609642028809,342.7504019737244,7.023105083000001,349.77350705672444,341.2584500312805,6,4
1.0,813.0,6520.0,40.0,4.0,13.0,350.2230730056762,76.0,82.0,0.0,0.0,0.43166112899780273,351.29005694389343,7.974849629999999,359.2649065738934,349.791405916214,6,4
1.0,813.0,6520.0,41.0,5.0,13.0,359.80873107910156,76.0,76.0,2.0,1.0,0.5194470882415771,360.7816569805145,8.33580511,369.11746209051455,359.2892789840698,6,4
1.0,813.0,6520.0,42.0,6.0,13.0,369.5885570049286,82.0,82.0,0.0,1.0,0.450145959854126,370.6303598880768,6.763984022000001,377.39434391007677,369.13840508461,6,4
1.0,813.0,6520.0,43.0,7.0,13.0,377.8634240627289,76.0,82.0,0.0,0.0,0.4437820911407471,378.91197800636286,8.482623584,387.39460159036287,377.41963696479803,6,4
1.0,813.0,6520.0,44.0,8.0,13.0,387.92287087440485,82.0,76.0,1.0,0.0,0.5043439865112305,388.9103000164032,7.718719605,396.6290196214032,387.41852188110346,6,4
1.0,813.0,6520.0,45.0,9.0,13.0,397.0436248779297,76.0,82.0,0.0,0.0,0.3929440975189209,398.14228606224066,8.637534137999998,406.77982020024064,396.6506741046906,6,4
1.0,813.0,6520.0,46.0,10.0,13.0,407.35654592514044,76.0,76.0,1.0,1.0,0.5569891929626464,408.2992310523986,7.401030339,415.7002613913986,406.79954910278326,6,4
1.0,813.0,6520.0,47.0,11.0,13.0,416.18911099433893,76.0,82.0,0.0,0.0,0.4745109081268311,417.2144300937652,9.623171909,426.8376020027652,415.71459388732916,6,4
1.0,813.0,6520.0,48.0,12.0,13.0,427.32075095176697,82.0,76.0,0.0,0.0,0.4581069946289063,428.3551728725433,6.273675208999999,434.62884808154325,426.86263608932495,6,4
1.0,813.0,6520.0,49.0,13.0,13.0,435.11948490142817,82.0,82.0,2.0,1.0,0.4743630886077882,436.1454389095306,8.360017595,444.50545650453057,434.64511299133295,6,4
1.0,813.0,6520.0,50.0,14.0,13.0,444.9702470302582,76.0,82.0,2.0,0.0,0.4426679611206055,446.01942992210394,6.532901352999999,452.55233127510394,444.52757906913763,6,4
1.0,813.0,6520.0,51.0,15.0,13.0,453.0020110607148,76.0,82.0,0.0,0.0,0.42659711837768566,454.0673830509185,6.161457564,460.2288406149185,452.5753810405731,6,4
1.0,813.0,6520.0,52.0,16.0,13.0,460.6347570419312,82.0,82.0,2.0,1.0,0.3928110599517822,461.74060106277466,7.6808590479999985,469.42146011077466,460.2419390678406,6,4
1.0,813.0,6520.0,53.0,17.0,13.0,469.92030692100525,82.0,76.0,3.0,0.0,0.4804620742797853,470.9400310516357,8.778043002999999,479.7180740546357,469.43984103202814,6,4
1.0,813.0,6520.0,54.0,18.0,13.0,480.17605495452875,82.0,82.0,0.0,1.0,0.43747711181640636,481.239548921585,6.6360624810000015,487.87561140258504,479.7385680675506,6,4
1.0,813.0,6520.0,55.0,19.0,13.0,488.34568595886236,76.0,82.0,0.0,0.0,0.4416589736938477,489.3962020874024,9.319084644,498.7152867314024,487.9040250778198,6,4
1.0,813.0,6520.0,56.0,20.0,13.0,499.1724009513855,76.0,76.0,0.0,1.0,0.4365420341491699,500.23605608940125,6.553907212,506.78996330140126,498.73585295677196,6,4
1.0,813.0,6520.0,57.0,21.0,13.0,507.2080099582672,82.0,82.0,2.0,1.0,0.39003014564514166,508.309807062149,6.206747956999999,514.516555019149,506.81797504425055,6,4
1.0,813.0,6520.0,58.0,0.0,14.0,514.940901041031,82.0,82.0,3.0,1.0,0.40772199630737294,516.0332899093628,9.297171513,525.3304614223628,514.5331749916077,6,4
1.0,813.0,6520.0,59.0,1.0,14.0,525.8013670444489,82.0,82.0,0.0,1.0,0.4521980285644531,526.8481879234313,6.645541148,533.4937290714313,525.3491659164429,6,4
