stim_onset, stim_duration, trial_type, rt, accuracy, epoch_length,epoch_trial, epoch_number
1.598405838012695312e-02	1.500566959381103516e+00	0.000000000000000000e+00	5.668699741363525391e-01	1.000000000000000000e+00	1.600000000000000000e+01	0.000000000000000000e+00	0.000000000000000000e+00
8.431493043899536133e+00	1.500105142593383789e+00	1.000000000000000000e+00	6.170740127563476562e-01	1.000000000000000000e+00	1.600000000000000000e+01	1.000000000000000000e+00	0.000000000000000000e+00
1.399728298187255859e+01	1.500604152679443359e+00	2.000000000000000000e+00	6.089980602264404297e-01	1.000000000000000000e+00	1.600000000000000000e+01	2.000000000000000000e+00	0.000000000000000000e+00
2.133028817176818848e+01	1.498988866806030273e+00	3.000000000000000000e+00	5.848989486694335938e-01	0.000000000000000000e+00	1.600000000000000000e+01	3.000000000000000000e+00	0.000000000000000000e+00
2.894548702239990234e+01	1.499726057052612305e+00	4.000000000000000000e+00	5.234801769256591797e-01	1.000000000000000000e+00	1.600000000000000000e+01	4.000000000000000000e+00	0.000000000000000000e+00
3.477790212631225586e+01	1.499960899353027344e+00	5.000000000000000000e+00	5.377471446990966797e-01	1.000000000000000000e+00	1.600000000000000000e+01	5.000000000000000000e+00	0.000000000000000000e+00
4.052749300003051758e+01	1.499485969543457031e+00	6.000000000000000000e+00	5.489819049835205078e-01	1.000000000000000000e+00	1.600000000000000000e+01	6.000000000000000000e+00	0.000000000000000000e+00
4.794273209571838379e+01	1.499739885330200195e+00	7.000000000000000000e+00	5.806741714477539062e-01	1.000000000000000000e+00	1.600000000000000000e+01	7.000000000000000000e+00	0.000000000000000000e+00
5.867434501647949219e+01	1.500182151794433594e+00	8.000000000000000000e+00	6.055791378021240234e-01	1.000000000000000000e+00	1.600000000000000000e+01	8.000000000000000000e+00	0.000000000000000000e+00
6.710645699501037598e+01	1.500370979309082031e+00	9.000000000000000000e+00	5.501408576965332031e-01	1.000000000000000000e+00	1.600000000000000000e+01	9.000000000000000000e+00	0.000000000000000000e+00
7.320521497726440430e+01	1.500560045242309570e+00	1.000000000000000000e+01	6.042351722717285156e-01	1.000000000000000000e+00	1.600000000000000000e+01	1.000000000000000000e+01	0.000000000000000000e+00
8.332093000411987305e+01	1.499788045883178711e+00	1.100000000000000000e+01	6.042070388793945312e-01	1.000000000000000000e+00	1.600000000000000000e+01	1.100000000000000000e+01	0.000000000000000000e+00
9.071985697746276855e+01	1.499318122863769531e+00	1.200000000000000000e+01	6.141591072082519531e-01	1.000000000000000000e+00	1.600000000000000000e+01	1.200000000000000000e+01	0.000000000000000000e+00
9.866836500167846680e+01	1.499691009521484375e+00	1.300000000000000000e+01	5.922291278839111328e-01	1.000000000000000000e+00	1.600000000000000000e+01	1.300000000000000000e+01	0.000000000000000000e+00
1.078504819869995117e+02	1.500573158264160156e+00	1.400000000000000000e+01	6.399059295654296875e-01	1.000000000000000000e+00	1.600000000000000000e+01	1.400000000000000000e+01	0.000000000000000000e+00
1.175155391693115234e+02	1.499910831451416016e+00	1.500000000000000000e+01	5.646688938140869141e-01	1.000000000000000000e+00	1.600000000000000000e+01	1.500000000000000000e+01	0.000000000000000000e+00
1.238483200073242188e+02	1.499521017074584961e+00	1.600000000000000000e+01	6.116461753845214844e-01	0.000000000000000000e+00	2.100000000000000000e+01	0.000000000000000000e+00	1.000000000000000000e+00
1.297807979583740234e+02	1.500672101974487305e+00	1.700000000000000000e+01	4.408290386199951172e-01	1.000000000000000000e+00	2.100000000000000000e+01	1.000000000000000000e+00	1.000000000000000000e+00
1.366966080665588379e+02	1.499537944793701172e+00	1.800000000000000000e+01	5.119779109954833984e-01	1.000000000000000000e+00	2.100000000000000000e+01	2.000000000000000000e+00	1.000000000000000000e+00
1.461284561157226562e+02	1.499456882476806641e+00	1.900000000000000000e+01	5.847210884094238281e-01	1.000000000000000000e+00	2.100000000000000000e+01	3.000000000000000000e+00	1.000000000000000000e+00
1.517607569694519043e+02	1.499954223632812500e+00	2.000000000000000000e+01	5.362617969512939453e-01	1.000000000000000000e+00	2.100000000000000000e+01	4.000000000000000000e+00	1.000000000000000000e+00
1.606431469917297363e+02	1.499795198440551758e+00	2.100000000000000000e+01	4.548318386077880859e-01	1.000000000000000000e+00	2.100000000000000000e+01	5.000000000000000000e+00	1.000000000000000000e+00
1.675754120349884033e+02	1.499701023101806641e+00	2.200000000000000000e+01	4.869821071624755859e-01	1.000000000000000000e+00	2.100000000000000000e+01	6.000000000000000000e+00	1.000000000000000000e+00
1.796741390228271484e+02	1.499879121780395508e+00	2.300000000000000000e+01	5.591628551483154297e-01	1.000000000000000000e+00	2.100000000000000000e+01	7.000000000000000000e+00	1.000000000000000000e+00
1.917054440975189209e+02	1.499238014221191406e+00	2.400000000000000000e+01	5.654611587524414062e-01	1.000000000000000000e+00	2.100000000000000000e+01	8.000000000000000000e+00	1.000000000000000000e+00
2.006206610202789307e+02	1.499995946884155273e+00	2.500000000000000000e+01	5.748350620269775391e-01	1.000000000000000000e+00	2.100000000000000000e+01	9.000000000000000000e+00	1.000000000000000000e+00
2.181341969966888428e+02	1.500986099243164062e+00	2.600000000000000000e+01	6.409130096435546875e-01	1.000000000000000000e+00	2.100000000000000000e+01	1.000000000000000000e+01	1.000000000000000000e+00
2.293668260574340820e+02	1.499869108200073242e+00	2.700000000000000000e+01	nan	nan	2.100000000000000000e+01	1.100000000000000000e+01	1.000000000000000000e+00
2.356324269771575928e+02	1.500014066696166992e+00	2.800000000000000000e+01	4.559719562530517578e-01	1.000000000000000000e+00	2.100000000000000000e+01	1.200000000000000000e+01	1.000000000000000000e+00
2.457472150325775146e+02	1.499943017959594727e+00	2.900000000000000000e+01	4.558739662170410156e-01	1.000000000000000000e+00	2.100000000000000000e+01	1.300000000000000000e+01	1.000000000000000000e+00
2.568884110450744629e+02	1.500221967697143555e+00	3.000000000000000000e+01	4.867138862609863281e-01	0.000000000000000000e+00	2.100000000000000000e+01	1.400000000000000000e+01	1.000000000000000000e+00
2.627879171371459961e+02	1.500293016433715820e+00	3.100000000000000000e+01	4.672172069549560547e-01	1.000000000000000000e+00	2.100000000000000000e+01	1.500000000000000000e+01	1.000000000000000000e+00
2.687701091766357422e+02	1.500280857086181641e+00	3.200000000000000000e+01	4.528110027313232422e-01	1.000000000000000000e+00	2.100000000000000000e+01	1.600000000000000000e+01	1.000000000000000000e+00
2.746360299587249756e+02	1.500295162200927734e+00	3.300000000000000000e+01	4.587500095367431641e-01	0.000000000000000000e+00	2.100000000000000000e+01	1.700000000000000000e+01	1.000000000000000000e+00
2.801852970123291016e+02	1.499758958816528320e+00	3.400000000000000000e+01	4.743900299072265625e-01	1.000000000000000000e+00	2.100000000000000000e+01	1.800000000000000000e+01	1.000000000000000000e+00
2.857178370952606201e+02	1.499886035919189453e+00	3.500000000000000000e+01	3.997800350189208984e-01	1.000000000000000000e+00	2.100000000000000000e+01	1.900000000000000000e+01	1.000000000000000000e+00
2.925836410522460938e+02	1.499381065368652344e+00	3.600000000000000000e+01	5.697720050811767578e-01	0.000000000000000000e+00	2.100000000000000000e+01	2.000000000000000000e+01	1.000000000000000000e+00
2.983157839775085449e+02	1.499775171279907227e+00	3.700000000000000000e+01	4.953410625457763672e-01	0.000000000000000000e+00	2.000000000000000000e+01	0.000000000000000000e+00	2.000000000000000000e+00
3.052319521903991699e+02	1.499832868576049805e+00	3.800000000000000000e+01	4.340648651123046875e-01	0.000000000000000000e+00	2.000000000000000000e+01	1.000000000000000000e+00	2.000000000000000000e+00
3.225301129817962646e+02	1.499311208724975586e+00	3.900000000000000000e+01	5.442781448364257812e-01	0.000000000000000000e+00	2.000000000000000000e+01	2.000000000000000000e+00	2.000000000000000000e+00
3.285949351787567139e+02	1.500290870666503906e+00	4.000000000000000000e+01	5.222890377044677734e-01	0.000000000000000000e+00	2.000000000000000000e+01	3.000000000000000000e+00	2.000000000000000000e+00
3.358950309753417969e+02	1.499742031097412109e+00	4.100000000000000000e+01	5.919580459594726562e-01	1.000000000000000000e+00	2.000000000000000000e+01	4.000000000000000000e+00	2.000000000000000000e+00
3.425271790027618408e+02	1.498970985412597656e+00	4.200000000000000000e+01	5.367009639739990234e-01	1.000000000000000000e+00	2.000000000000000000e+01	5.000000000000000000e+00	2.000000000000000000e+00
3.491757891178131104e+02	1.499999046325683594e+00	4.300000000000000000e+01	5.546979904174804688e-01	1.000000000000000000e+00	2.000000000000000000e+01	6.000000000000000000e+00	2.000000000000000000e+00
3.575755100250244141e+02	1.498522996902465820e+00	4.400000000000000000e+01	3.999671936035156250e-01	1.000000000000000000e+00	2.000000000000000000e+01	7.000000000000000000e+00	2.000000000000000000e+00
3.634073431491851807e+02	1.499714851379394531e+00	4.500000000000000000e+01	5.539219379425048828e-01	0.000000000000000000e+00	2.000000000000000000e+01	8.000000000000000000e+00	2.000000000000000000e+00
3.691897041797637939e+02	1.499850988388061523e+00	4.600000000000000000e+01	5.403800010681152344e-01	1.000000000000000000e+00	2.000000000000000000e+01	9.000000000000000000e+00	2.000000000000000000e+00
3.758054311275482178e+02	1.499800920486450195e+00	4.700000000000000000e+01	5.963160991668701172e-01	1.000000000000000000e+00	2.000000000000000000e+01	1.000000000000000000e+01	2.000000000000000000e+00
3.830710411071777344e+02	1.500211954116821289e+00	4.800000000000000000e+01	6.446750164031982422e-01	1.000000000000000000e+00	2.000000000000000000e+01	1.100000000000000000e+01	2.000000000000000000e+00
3.940689980983734131e+02	1.500617027282714844e+00	4.900000000000000000e+01	6.311619281768798828e-01	1.000000000000000000e+00	2.000000000000000000e+01	1.200000000000000000e+01	2.000000000000000000e+00
4.079847230911254883e+02	1.499024868011474609e+00	5.000000000000000000e+01	6.481080055236816406e-01	1.000000000000000000e+00	2.000000000000000000e+01	1.300000000000000000e+01	2.000000000000000000e+00
4.168668501377105713e+02	1.499027013778686523e+00	5.100000000000000000e+01	5.079050064086914062e-01	0.000000000000000000e+00	2.000000000000000000e+01	1.400000000000000000e+01	2.000000000000000000e+00
4.252157940864562988e+02	1.499265909194946289e+00	5.200000000000000000e+01	5.847160816192626953e-01	1.000000000000000000e+00	2.000000000000000000e+01	1.500000000000000000e+01	2.000000000000000000e+00
4.335471739768981934e+02	1.499849081039428711e+00	5.300000000000000000e+01	5.728621482849121094e-01	1.000000000000000000e+00	2.000000000000000000e+01	1.600000000000000000e+01	2.000000000000000000e+00
4.409130370616912842e+02	1.499510049819946289e+00	5.400000000000000000e+01	5.529658794403076172e-01	1.000000000000000000e+00	2.000000000000000000e+01	1.700000000000000000e+01	2.000000000000000000e+00
4.479285290241241455e+02	1.500252008438110352e+00	5.500000000000000000e+01	5.992829799652099609e-01	1.000000000000000000e+00	2.000000000000000000e+01	1.800000000000000000e+01	2.000000000000000000e+00
4.587101039886474609e+02	1.500671148300170898e+00	5.600000000000000000e+01	6.151478290557861328e-01	1.000000000000000000e+00	2.000000000000000000e+01	1.900000000000000000e+01	2.000000000000000000e+00
4.653425800800323486e+02	1.500152111053466797e+00	5.700000000000000000e+01	6.265211105346679688e-01	0.000000000000000000e+00	1.900000000000000000e+01	0.000000000000000000e+00	3.000000000000000000e+00
4.736412360668182373e+02	1.500108957290649414e+00	5.800000000000000000e+01	5.986659526824951172e-01	0.000000000000000000e+00	1.900000000000000000e+01	1.000000000000000000e+00	3.000000000000000000e+00
4.809573249816894531e+02	1.499584197998046875e+00	5.900000000000000000e+01	5.754721164703369141e-01	1.000000000000000000e+00	1.900000000000000000e+01	2.000000000000000000e+00	3.000000000000000000e+00
