stim_onset, stim_duration, trial_type, rt, accuracy, epoch_length,epoch_trial, epoch_number
1.589417457580566406e-02	1.500797033309936523e+00	0.000000000000000000e+00	5.355808734893798828e-01	1.000000000000000000e+00	2.100000000000000000e+01	9.000000000000000000e+00	8.000000000000000000e+00
5.565817117691040039e+00	1.500003099441528320e+00	1.000000000000000000e+00	4.931769371032714844e-01	0.000000000000000000e+00	2.100000000000000000e+01	1.000000000000000000e+01	8.000000000000000000e+00
1.163183712959289551e+01	1.500297069549560547e+00	2.000000000000000000e+00	5.482449531555175781e-01	0.000000000000000000e+00	2.100000000000000000e+01	1.100000000000000000e+01	8.000000000000000000e+00
1.746415019035339355e+01	1.500234842300415039e+00	3.000000000000000000e+00	4.445879459381103516e-01	0.000000000000000000e+00	2.100000000000000000e+01	1.200000000000000000e+01	8.000000000000000000e+00
3.131220722198486328e+01	1.499513864517211914e+00	4.000000000000000000e+00	5.982279777526855469e-01	0.000000000000000000e+00	2.100000000000000000e+01	1.300000000000000000e+01	8.000000000000000000e+00
3.791153311729431152e+01	1.499950885772705078e+00	5.000000000000000000e+00	4.917891025543212891e-01	0.000000000000000000e+00	2.100000000000000000e+01	1.400000000000000000e+01	8.000000000000000000e+00
5.302569603919982910e+01	1.499860048294067383e+00	6.000000000000000000e+00	5.260751247406005859e-01	0.000000000000000000e+00	2.100000000000000000e+01	1.500000000000000000e+01	8.000000000000000000e+00
6.165747404098510742e+01	1.500801086425781250e+00	7.000000000000000000e+00	5.341920852661132812e-01	0.000000000000000000e+00	2.100000000000000000e+01	1.600000000000000000e+01	8.000000000000000000e+00
7.319002509117126465e+01	1.499927997589111328e+00	8.000000000000000000e+00	5.673129558563232422e-01	0.000000000000000000e+00	2.100000000000000000e+01	1.700000000000000000e+01	8.000000000000000000e+00
7.973831820487976074e+01	1.500377893447875977e+00	9.000000000000000000e+00	5.236527919769287109e-01	0.000000000000000000e+00	2.100000000000000000e+01	1.800000000000000000e+01	8.000000000000000000e+00
8.567049217224121094e+01	1.500111818313598633e+00	1.000000000000000000e+01	5.776319503784179688e-01	0.000000000000000000e+00	2.100000000000000000e+01	1.900000000000000000e+01	8.000000000000000000e+00
9.503643512725830078e+01	1.500113010406494141e+00	1.100000000000000000e+01	5.351967811584472656e-01	0.000000000000000000e+00	2.100000000000000000e+01	2.000000000000000000e+01	8.000000000000000000e+00
1.042855360507965088e+02	1.499433040618896484e+00	1.200000000000000000e+01	4.599130153656005859e-01	1.000000000000000000e+00	2.100000000000000000e+01	0.000000000000000000e+00	9.000000000000000000e+00
1.110342872142791748e+02	1.499734878540039062e+00	1.300000000000000000e+01	5.096688270568847656e-01	1.000000000000000000e+00	2.100000000000000000e+01	1.000000000000000000e+00	9.000000000000000000e+00
1.212993040084838867e+02	1.499617099761962891e+00	1.400000000000000000e+01	6.245539188385009766e-01	1.000000000000000000e+00	2.100000000000000000e+01	2.000000000000000000e+00	9.000000000000000000e+00
1.286818420886993408e+02	1.499670028686523438e+00	1.500000000000000000e+01	4.707360267639160156e-01	0.000000000000000000e+00	2.100000000000000000e+01	3.000000000000000000e+00	9.000000000000000000e+00
1.347647271156311035e+02	1.498930931091308594e+00	1.600000000000000000e+01	4.997990131378173828e-01	0.000000000000000000e+00	2.100000000000000000e+01	4.000000000000000000e+00	9.000000000000000000e+00
1.446967401504516602e+02	1.498802900314331055e+00	1.700000000000000000e+01	7.214860916137695312e-01	0.000000000000000000e+00	2.100000000000000000e+01	5.000000000000000000e+00	9.000000000000000000e+00
1.504620079994201660e+02	1.500402212142944336e+00	1.800000000000000000e+01	5.790550708770751953e-01	0.000000000000000000e+00	2.100000000000000000e+01	6.000000000000000000e+00	9.000000000000000000e+00
1.572775971889495850e+02	1.499644994735717773e+00	1.900000000000000000e+01	6.491229534149169922e-01	0.000000000000000000e+00	2.100000000000000000e+01	7.000000000000000000e+00	9.000000000000000000e+00
1.637274620532989502e+02	1.499182939529418945e+00	2.000000000000000000e+01	5.460300445556640625e-01	0.000000000000000000e+00	2.100000000000000000e+01	8.000000000000000000e+00	9.000000000000000000e+00
1.703092501163482666e+02	1.499272108078002930e+00	2.100000000000000000e+01	6.950011253356933594e-01	0.000000000000000000e+00	2.100000000000000000e+01	9.000000000000000000e+00	9.000000000000000000e+00
1.768914051055908203e+02	1.500006914138793945e+00	2.200000000000000000e+01	5.488128662109375000e-01	0.000000000000000000e+00	2.100000000000000000e+01	1.000000000000000000e+01	9.000000000000000000e+00
1.844079451560974121e+02	1.498465061187744141e+00	2.300000000000000000e+01	5.590410232543945312e-01	0.000000000000000000e+00	2.100000000000000000e+01	1.100000000000000000e+01	9.000000000000000000e+00
1.905729420185089111e+02	1.500212192535400391e+00	2.400000000000000000e+01	5.010311603546142578e-01	1.000000000000000000e+00	2.100000000000000000e+01	1.200000000000000000e+01	9.000000000000000000e+00
1.967554981708526611e+02	1.499601840972900391e+00	2.500000000000000000e+01	5.080809593200683594e-01	1.000000000000000000e+00	2.100000000000000000e+01	1.300000000000000000e+01	9.000000000000000000e+00
2.035547461509704590e+02	1.499996900558471680e+00	2.600000000000000000e+01	5.807418823242187500e-01	1.000000000000000000e+00	2.100000000000000000e+01	1.400000000000000000e+01	9.000000000000000000e+00
2.099871611595153809e+02	1.500222921371459961e+00	2.700000000000000000e+01	4.860749244689941406e-01	0.000000000000000000e+00	2.100000000000000000e+01	1.500000000000000000e+01	9.000000000000000000e+00
2.185690491199493408e+02	1.500475883483886719e+00	2.800000000000000000e+01	5.829560756683349609e-01	0.000000000000000000e+00	2.100000000000000000e+01	1.600000000000000000e+01	9.000000000000000000e+00
2.254181871414184570e+02	1.499552011489868164e+00	2.900000000000000000e+01	6.057190895080566406e-01	0.000000000000000000e+00	2.100000000000000000e+01	1.700000000000000000e+01	9.000000000000000000e+00
2.364997839927673340e+02	1.499702215194702148e+00	3.000000000000000000e+01	6.358060836791992188e-01	1.000000000000000000e+00	2.100000000000000000e+01	1.800000000000000000e+01	9.000000000000000000e+00
2.481654059886932373e+02	1.500006198883056641e+00	3.100000000000000000e+01	6.458840370178222656e-01	0.000000000000000000e+00	2.100000000000000000e+01	1.900000000000000000e+01	9.000000000000000000e+00
2.553972780704498291e+02	1.499243974685668945e+00	3.200000000000000000e+01	5.827360153198242188e-01	0.000000000000000000e+00	2.100000000000000000e+01	2.000000000000000000e+01	9.000000000000000000e+00
2.681122450828552246e+02	1.499984025955200195e+00	3.300000000000000000e+01	6.372401714324951172e-01	1.000000000000000000e+00	2.700000000000000000e+01	0.000000000000000000e+00	1.000000000000000000e+01
2.783438370227813721e+02	1.500270128250122070e+00	3.400000000000000000e+01	5.276870727539062500e-01	0.000000000000000000e+00	2.700000000000000000e+01	1.000000000000000000e+00	1.000000000000000000e+01
2.844928171634674072e+02	1.499861955642700195e+00	3.500000000000000000e+01	5.234129428863525391e-01	0.000000000000000000e+00	2.700000000000000000e+01	2.000000000000000000e+00	1.000000000000000000e+01
2.921750650405883789e+02	1.499971151351928711e+00	3.600000000000000000e+01	6.059899330139160156e-01	0.000000000000000000e+00	2.700000000000000000e+01	3.000000000000000000e+00	1.000000000000000000e+01
2.997583692073822021e+02	1.498781919479370117e+00	3.700000000000000000e+01	4.992191791534423828e-01	0.000000000000000000e+00	2.700000000000000000e+01	4.000000000000000000e+00	1.000000000000000000e+01
3.090405580997467041e+02	1.498625993728637695e+00	3.800000000000000000e+01	5.428800582885742188e-01	0.000000000000000000e+00	2.700000000000000000e+01	5.000000000000000000e+00	1.000000000000000000e+01
3.161222162246704102e+02	1.499534845352172852e+00	3.900000000000000000e+01	5.561449527740478516e-01	0.000000000000000000e+00	2.700000000000000000e+01	6.000000000000000000e+00	1.000000000000000000e+01
3.234047851562500000e+02	1.500238895416259766e+00	4.000000000000000000e+01	6.709918975830078125e-01	1.000000000000000000e+00	2.700000000000000000e+01	7.000000000000000000e+00	1.000000000000000000e+01
3.292703700065612793e+02	1.499997138977050781e+00	4.100000000000000000e+01	5.636000633239746094e-01	1.000000000000000000e+00	2.700000000000000000e+01	8.000000000000000000e+00	1.000000000000000000e+01
3.383525412082672119e+02	1.499920845031738281e+00	4.200000000000000000e+01	5.980641841888427734e-01	1.000000000000000000e+00	2.700000000000000000e+01	9.000000000000000000e+00	1.000000000000000000e+01
3.495505740642547607e+02	1.499612092971801758e+00	4.300000000000000000e+01	nan	nan	2.700000000000000000e+01	1.000000000000000000e+01	1.000000000000000000e+01
3.571164050102233887e+02	1.500293016433715820e+00	4.400000000000000000e+01	4.454112052917480469e-01	1.000000000000000000e+00	2.700000000000000000e+01	1.100000000000000000e+01	1.000000000000000000e+01
3.630658771991729736e+02	1.499951839447021484e+00	4.500000000000000000e+01	5.159409046173095703e-01	1.000000000000000000e+00	2.700000000000000000e+01	1.200000000000000000e+01	1.000000000000000000e+01
3.765804581642150879e+02	1.499229907989501953e+00	4.600000000000000000e+01	5.501911640167236328e-01	1.000000000000000000e+00	2.700000000000000000e+01	1.300000000000000000e+01	1.000000000000000000e+01
3.849290602207183838e+02	1.500057935714721680e+00	4.700000000000000000e+01	6.041538715362548828e-01	1.000000000000000000e+00	2.700000000000000000e+01	1.400000000000000000e+01	1.000000000000000000e+01
3.939946570396423340e+02	1.500152111053466797e+00	4.800000000000000000e+01	4.886422157287597656e-01	1.000000000000000000e+00	2.700000000000000000e+01	1.500000000000000000e+01	1.000000000000000000e+01
4.097925271987915039e+02	1.499536991119384766e+00	4.900000000000000000e+01	6.059679985046386719e-01	1.000000000000000000e+00	2.700000000000000000e+01	1.600000000000000000e+01	1.000000000000000000e+01
4.153252911567687988e+02	1.499547004699707031e+00	5.000000000000000000e+01	4.549260139465332031e-01	0.000000000000000000e+00	2.700000000000000000e+01	1.700000000000000000e+01	1.000000000000000000e+01
4.237570250034332275e+02	1.499828100204467773e+00	5.100000000000000000e+01	5.441031455993652344e-01	0.000000000000000000e+00	2.700000000000000000e+01	1.800000000000000000e+01	1.000000000000000000e+01
4.345386910438537598e+02	1.499871015548706055e+00	5.200000000000000000e+01	5.169870853424072266e-01	0.000000000000000000e+00	2.700000000000000000e+01	1.900000000000000000e+01	1.000000000000000000e+01
4.428538281917572021e+02	1.500300884246826172e+00	5.300000000000000000e+01	5.287909507751464844e-01	0.000000000000000000e+00	2.700000000000000000e+01	2.000000000000000000e+01	1.000000000000000000e+01
4.488703579902648926e+02	1.499795198440551758e+00	5.400000000000000000e+01	4.900281429290771484e-01	1.000000000000000000e+00	2.700000000000000000e+01	2.100000000000000000e+01	1.000000000000000000e+01
4.544194080829620361e+02	1.499695062637329102e+00	5.500000000000000000e+01	5.018241405487060547e-01	0.000000000000000000e+00	2.700000000000000000e+01	2.200000000000000000e+01	1.000000000000000000e+01
4.690206220149993896e+02	1.500019073486328125e+00	5.600000000000000000e+01	5.489571094512939453e-01	1.000000000000000000e+00	2.700000000000000000e+01	2.300000000000000000e+01	1.000000000000000000e+01
4.770196411609649658e+02	1.500126838684082031e+00	5.700000000000000000e+01	4.873869419097900391e-01	0.000000000000000000e+00	2.700000000000000000e+01	2.400000000000000000e+01	1.000000000000000000e+01
4.843022201061248779e+02	1.500062942504882812e+00	5.800000000000000000e+01	5.415978431701660156e-01	0.000000000000000000e+00	2.700000000000000000e+01	2.500000000000000000e+01	1.000000000000000000e+01
4.901009480953216553e+02	1.499602079391479492e+00	5.900000000000000000e+01	5.107471942901611328e-01	0.000000000000000000e+00	2.700000000000000000e+01	2.600000000000000000e+01	1.000000000000000000e+01
