stim_onset, stim_duration, trial_type, rt, accuracy, epoch_length,epoch_trial, epoch_number
1.288104057312011719e-02	1.499084949493408203e+00	0.000000000000000000e+00	5.964591503143310547e-01	0.000000000000000000e+00	1.000000000000000000e+01	1.000000000000000000e+00	2.300000000000000000e+01
6.370275974273681641e+00	1.498879909515380859e+00	1.000000000000000000e+00	4.869191646575927734e-01	0.000000000000000000e+00	1.000000000000000000e+01	2.000000000000000000e+00	2.300000000000000000e+01
1.225270199775695801e+01	1.498979091644287109e+00	2.000000000000000000e+00	6.313199996948242188e-01	0.000000000000000000e+00	1.000000000000000000e+01	3.000000000000000000e+00	2.300000000000000000e+01
2.210117006301879883e+01	1.498839855194091797e+00	3.000000000000000000e+00	6.585469245910644531e-01	0.000000000000000000e+00	1.000000000000000000e+01	4.000000000000000000e+00	2.300000000000000000e+01
2.847502994537353516e+01	1.500324010848999023e+00	4.000000000000000000e+00	4.833581447601318359e-01	0.000000000000000000e+00	1.000000000000000000e+01	5.000000000000000000e+00	2.300000000000000000e+01
3.927362990379333496e+01	1.500156164169311523e+00	5.000000000000000000e+00	5.145680904388427734e-01	0.000000000000000000e+00	1.000000000000000000e+01	6.000000000000000000e+00	2.300000000000000000e+01
4.771390008926391602e+01	1.499679803848266602e+00	6.000000000000000000e+00	4.331381320953369141e-01	1.000000000000000000e+00	1.000000000000000000e+01	7.000000000000000000e+00	2.300000000000000000e+01
5.339645504951477051e+01	1.496273040771484375e+00	7.000000000000000000e+00	5.245649814605712891e-01	0.000000000000000000e+00	1.000000000000000000e+01	8.000000000000000000e+00	2.300000000000000000e+01
6.013715291023254395e+01	1.499598979949951172e+00	8.000000000000000000e+00	3.745279312133789062e-01	0.000000000000000000e+00	1.000000000000000000e+01	9.000000000000000000e+00	2.300000000000000000e+01
6.863592004776000977e+01	1.491569042205810547e+00	9.000000000000000000e+00	4.515600204467773438e-01	0.000000000000000000e+00	9.000000000000000000e+00	0.000000000000000000e+00	2.400000000000000000e+01
7.478495693206787109e+01	1.500013113021850586e+00	1.000000000000000000e+01	5.654430389404296875e-01	1.000000000000000000e+00	9.000000000000000000e+00	1.000000000000000000e+00	2.400000000000000000e+01
8.199284887313842773e+01	1.499756097793579102e+00	1.100000000000000000e+01	5.164649486541748047e-01	1.000000000000000000e+00	9.000000000000000000e+00	2.000000000000000000e+00	2.400000000000000000e+01
9.088295292854309082e+01	1.500012159347534180e+00	1.200000000000000000e+01	4.599909782409667969e-01	1.000000000000000000e+00	9.000000000000000000e+00	3.000000000000000000e+00	2.400000000000000000e+01
1.000818688869476318e+02	1.500169038772583008e+00	1.300000000000000000e+01	6.666958332061767578e-01	1.000000000000000000e+00	9.000000000000000000e+00	4.000000000000000000e+00	2.400000000000000000e+01
1.092304990291595459e+02	1.499712944030761719e+00	1.400000000000000000e+01	5.758199691772460938e-01	1.000000000000000000e+00	9.000000000000000000e+00	5.000000000000000000e+00	2.400000000000000000e+01
1.163873450756072998e+02	1.499734878540039062e+00	1.500000000000000000e+01	4.958779811859130859e-01	1.000000000000000000e+00	9.000000000000000000e+00	6.000000000000000000e+00	2.400000000000000000e+01
1.246025760173797607e+02	1.500895023345947266e+00	1.600000000000000000e+01	nan	nan	9.000000000000000000e+00	7.000000000000000000e+00	2.400000000000000000e+01
1.329014270305633545e+02	1.496983051300048828e+00	1.700000000000000000e+01	5.924289226531982422e-01	1.000000000000000000e+00	9.000000000000000000e+00	8.000000000000000000e+00	2.400000000000000000e+01
1.392673699855804443e+02	1.496460914611816406e+00	1.800000000000000000e+01	6.062917709350585938e-01	1.000000000000000000e+00	1.400000000000000000e+01	0.000000000000000000e+00	2.500000000000000000e+01
1.455917150974273682e+02	1.499972820281982422e+00	1.900000000000000000e+01	5.587799549102783203e-01	1.000000000000000000e+00	1.400000000000000000e+01	1.000000000000000000e+00	2.500000000000000000e+01
1.558485009670257568e+02	1.497184991836547852e+00	2.000000000000000000e+01	5.845000743865966797e-01	1.000000000000000000e+00	1.400000000000000000e+01	2.000000000000000000e+00	2.500000000000000000e+01
1.619650170803070068e+02	1.495157957077026367e+00	2.100000000000000000e+01	5.678880214691162109e-01	1.000000000000000000e+00	1.400000000000000000e+01	3.000000000000000000e+00	2.500000000000000000e+01
1.766204218864440918e+02	1.499253988265991211e+00	2.200000000000000000e+01	5.671989917755126953e-01	1.000000000000000000e+00	1.400000000000000000e+01	4.000000000000000000e+00	2.500000000000000000e+01
1.859026839733123779e+02	1.500584125518798828e+00	2.300000000000000000e+01	5.708000659942626953e-01	1.000000000000000000e+00	1.400000000000000000e+01	5.000000000000000000e+00	2.500000000000000000e+01
1.960686960220336914e+02	1.498864889144897461e+00	2.400000000000000000e+01	5.855190753936767578e-01	1.000000000000000000e+00	1.400000000000000000e+01	6.000000000000000000e+00	2.500000000000000000e+01
2.030501730442047119e+02	1.500066995620727539e+00	2.500000000000000000e+01	7.079250812530517578e-01	1.000000000000000000e+00	1.400000000000000000e+01	7.000000000000000000e+00	2.500000000000000000e+01
2.096490409374237061e+02	1.500301122665405273e+00	2.600000000000000000e+01	5.386819839477539062e-01	1.000000000000000000e+00	1.400000000000000000e+01	8.000000000000000000e+00	2.500000000000000000e+01
2.207058930397033691e+02	1.497385978698730469e+00	2.700000000000000000e+01	6.425101757049560547e-01	0.000000000000000000e+00	1.400000000000000000e+01	9.000000000000000000e+00	2.500000000000000000e+01
2.331288940906524658e+02	1.499803781509399414e+00	2.800000000000000000e+01	6.011419296264648438e-01	1.000000000000000000e+00	1.400000000000000000e+01	1.000000000000000000e+01	2.500000000000000000e+01
2.421360409259796143e+02	1.500233173370361328e+00	2.900000000000000000e+01	6.248400211334228516e-01	0.000000000000000000e+00	1.400000000000000000e+01	1.100000000000000000e+01	2.500000000000000000e+01
2.503274860382080078e+02	1.499781847000122070e+00	3.000000000000000000e+01	6.032950878143310547e-01	0.000000000000000000e+00	1.400000000000000000e+01	1.200000000000000000e+01	2.500000000000000000e+01
2.568841419219970703e+02	1.499351978302001953e+00	3.100000000000000000e+01	5.165400505065917969e-01	0.000000000000000000e+00	1.400000000000000000e+01	1.300000000000000000e+01	2.500000000000000000e+01
2.636331529617309570e+02	1.496452093124389648e+00	3.200000000000000000e+01	4.720032215118408203e-01	1.000000000000000000e+00	1.200000000000000000e+01	0.000000000000000000e+00	2.600000000000000000e+01
2.740152409076690674e+02	1.497085094451904297e+00	3.300000000000000000e+01	4.740281105041503906e-01	0.000000000000000000e+00	1.200000000000000000e+01	1.000000000000000000e+00	2.600000000000000000e+01
2.804810791015625000e+02	1.496673822402954102e+00	3.400000000000000000e+01	7.156059741973876953e-01	1.000000000000000000e+00	1.200000000000000000e+01	2.000000000000000000e+00	2.600000000000000000e+01
2.893968880176544189e+02	1.496307849884033203e+00	3.500000000000000000e+01	4.505820274353027344e-01	0.000000000000000000e+00	1.200000000000000000e+01	3.000000000000000000e+00	2.600000000000000000e+01
2.995196199417114258e+02	1.499941110610961914e+00	3.600000000000000000e+01	4.649951457977294922e-01	0.000000000000000000e+00	1.200000000000000000e+01	4.000000000000000000e+00	2.600000000000000000e+01
3.070612630844116211e+02	1.498425006866455078e+00	3.700000000000000000e+01	4.508440494537353516e-01	0.000000000000000000e+00	1.200000000000000000e+01	5.000000000000000000e+00	2.600000000000000000e+01
3.134588620662689209e+02	1.497438907623291016e+00	3.800000000000000000e+01	4.771299362182617188e-01	0.000000000000000000e+00	1.200000000000000000e+01	6.000000000000000000e+00	2.600000000000000000e+01
3.218084008693695068e+02	1.496439218521118164e+00	3.900000000000000000e+01	5.005669593811035156e-01	1.000000000000000000e+00	1.200000000000000000e+01	7.000000000000000000e+00	2.600000000000000000e+01
3.378401889801025391e+02	1.495887041091918945e+00	4.000000000000000000e+01	6.431338787078857422e-01	0.000000000000000000e+00	1.200000000000000000e+01	8.000000000000000000e+00	2.600000000000000000e+01
3.438300409317016602e+02	1.500095129013061523e+00	4.100000000000000000e+01	5.831339359283447266e-01	0.000000000000000000e+00	1.200000000000000000e+01	9.000000000000000000e+00	2.600000000000000000e+01
3.557952809333801270e+02	1.499680995941162109e+00	4.200000000000000000e+01	5.604121685028076172e-01	0.000000000000000000e+00	1.200000000000000000e+01	1.000000000000000000e+01	2.600000000000000000e+01
3.633357999324798584e+02	1.496847152709960938e+00	4.300000000000000000e+01	4.628250598907470703e-01	1.000000000000000000e+00	1.200000000000000000e+01	1.100000000000000000e+01	2.600000000000000000e+01
3.697096970081329346e+02	1.499929904937744141e+00	4.400000000000000000e+01	3.907709121704101562e-01	0.000000000000000000e+00	6.000000000000000000e+00	0.000000000000000000e+00	2.700000000000000000e+01
3.759256939888000488e+02	1.500250101089477539e+00	4.500000000000000000e+01	4.636318683624267578e-01	1.000000000000000000e+00	6.000000000000000000e+00	1.000000000000000000e+00	2.700000000000000000e+01
3.816912679672241211e+02	1.500148057937622070e+00	4.600000000000000000e+01	5.119349956512451172e-01	0.000000000000000000e+00	6.000000000000000000e+00	2.000000000000000000e+00	2.700000000000000000e+01
3.905483679771423340e+02	1.498080015182495117e+00	4.700000000000000000e+01	5.085191726684570312e-01	0.000000000000000000e+00	6.000000000000000000e+00	3.000000000000000000e+00	2.700000000000000000e+01
3.975977330207824707e+02	1.497513055801391602e+00	4.800000000000000000e+01	5.030350685119628906e-01	0.000000000000000000e+00	6.000000000000000000e+00	4.000000000000000000e+00	2.700000000000000000e+01
4.054382488727569580e+02	1.500041007995605469e+00	4.900000000000000000e+01	4.713358879089355469e-01	0.000000000000000000e+00	6.000000000000000000e+00	5.000000000000000000e+00	2.700000000000000000e+01
4.150616450309753418e+02	1.497669935226440430e+00	5.000000000000000000e+01	5.577008724212646484e-01	0.000000000000000000e+00	1.000000000000000000e+01	0.000000000000000000e+00	2.800000000000000000e+01
4.220114390850067139e+02	1.497126817703247070e+00	5.100000000000000000e+01	6.156618595123291016e-01	0.000000000000000000e+00	1.000000000000000000e+01	1.000000000000000000e+00	2.800000000000000000e+01
4.374252519607543945e+02	1.497474908828735352e+00	5.200000000000000000e+01	5.095741748809814453e-01	0.000000000000000000e+00	1.000000000000000000e+01	2.000000000000000000e+00	2.800000000000000000e+01
4.479323079586029053e+02	1.499934911727905273e+00	5.300000000000000000e+01	6.642198562622070312e-01	0.000000000000000000e+00	1.000000000000000000e+01	3.000000000000000000e+00	2.800000000000000000e+01
4.570567719936370850e+02	1.496763944625854492e+00	5.400000000000000000e+01	5.853459835052490234e-01	1.000000000000000000e+00	1.000000000000000000e+01	4.000000000000000000e+00	2.800000000000000000e+01
4.659550650119781494e+02	1.497339963912963867e+00	5.500000000000000000e+01	3.950319290161132812e-01	1.000000000000000000e+00	1.000000000000000000e+01	5.000000000000000000e+00	2.800000000000000000e+01
4.720210800170898438e+02	1.496932983398437500e+00	5.600000000000000000e+01	5.546019077301025391e-01	0.000000000000000000e+00	1.000000000000000000e+01	6.000000000000000000e+00	2.800000000000000000e+01
4.796777269840240479e+02	1.500137090682983398e+00	5.700000000000000000e+01	5.990180969238281250e-01	0.000000000000000000e+00	1.000000000000000000e+01	7.000000000000000000e+00	2.800000000000000000e+01
4.855182199478149414e+02	1.497692108154296875e+00	5.800000000000000000e+01	4.410459995269775391e-01	1.000000000000000000e+00	1.000000000000000000e+01	8.000000000000000000e+00	2.800000000000000000e+01
4.925515398979187012e+02	1.496459007263183594e+00	5.900000000000000000e+01	nan	nan	1.000000000000000000e+01	9.000000000000000000e+00	2.800000000000000000e+01
