reward_code,subj_id,condition,trial,epoch_trial,epoch_number,button_press,LR_solution,LR,reward,p_accuracy,rt,trial_end,iti_length,iti_end,stim_onset,session_n,run_n
2.0,790.0,6530.0,0.0,23.0,10.0,0.3618719577789306,76.0,76.0,0.0,1.0,0.3441591262817383,1.5153088569641113,6.2146412383,7.729950095264111,0.017705917358398434,8,5
2.0,790.0,6530.0,1.0,24.0,10.0,8.32847285270691,82.0,76.0,1.0,0.0,0.5618290901184082,9.264499902725222,8.796708646499999,18.06120854922522,7.766644954681396,8,5
2.0,790.0,6530.0,2.0,25.0,10.0,18.587398052215576,76.0,82.0,0.0,0.0,0.5057380199432372,19.579663038253784,6.5996902655,26.179353303753786,18.081650018692017,8,5
2.0,790.0,6530.0,3.0,26.0,10.0,26.737027883529667,82.0,82.0,3.0,1.0,0.5234260559082031,27.711417913436886,9.6231719091,37.334589822536884,26.21360802650452,8,5
2.0,790.0,6530.0,4.0,27.0,10.0,37.88378405570984,76.0,76.0,1.0,1.0,0.5219609737396241,38.86039400100708,7.401030339199998,46.26142434020708,37.361811876297,8,5
2.0,790.0,6530.0,5.0,28.0,10.0,46.79634189605713,82.0,82.0,4.0,1.0,0.502558946609497,47.7925238609314,8.2252081357,56.0177319966314,46.293781042099006,8,5
2.0,790.0,6530.0,6.0,29.0,10.0,56.591011047363274,82.0,82.0,2.0,1.0,0.5480649471282959,57.54154706001281,6.6602143789,64.20176143891281,56.042938947677605,8,5
2.0,790.0,6530.0,7.0,0.0,11.0,64.74180507659912,82.0,76.0,0.0,0.0,0.5168108940124512,65.72277402877809,7.718719605,73.4414936337781,64.22499203681946,8,5
2.0,790.0,6530.0,8.0,1.0,11.0,74.01171398162842,82.0,82.0,0.0,1.0,0.5374760627746582,74.97171998023987,6.3175218564,81.28924183663987,73.47422885894774,8,5
2.0,790.0,6530.0,9.0,2.0,11.0,81.82941198348999,82.0,76.0,2.0,0.0,0.506803035736084,82.82096600532532,6.1614575639,88.98242356922532,81.32260608673094,8,5
2.0,790.0,6530.0,10.0,3.0,11.0,89.53207802772523,82.0,76.0,3.0,0.0,0.527393102645874,90.50311088562012,6.142144360600001,96.64525524622012,89.00467991828918,8,5
2.0,790.0,6530.0,11.0,4.0,11.0,97.18511390686037,76.0,82.0,0.0,0.0,0.5152409076690674,98.16845297813416,6.253368926,104.42182190413416,96.66986703872679,8,5
2.0,790.0,6530.0,12.0,5.0,11.0,105.03157591819763,76.0,76.0,1.0,1.0,0.5786938667297363,105.95101189613342,6.3517212972,112.30273319333342,104.45287585258484,8,5
2.0,790.0,6530.0,13.0,6.0,11.0,112.98462796211241,76.0,76.0,0.0,1.0,0.6494798660278321,113.83296585083008,9.1766548792,123.00962073003008,112.33514094352722,8,5
2.0,790.0,6530.0,14.0,7.0,11.0,123.62810397148132,76.0,82.0,0.0,0.0,0.5951418876647949,124.53189301490785,7.115323055599999,131.64721607050785,123.03295707702635,8,5
2.0,790.0,6530.0,15.0,8.0,11.0,132.27492785453796,82.0,76.0,0.0,0.0,0.5926480293273925,133.1801540851593,6.1189629448,139.2991170299593,131.68227291107178,8,5
2.0,790.0,6530.0,16.0,9.0,11.0,139.94572496414185,76.0,76.0,0.0,1.0,0.6141750812530518,140.829274892807,7.833443911,148.662718803807,139.33154201507568,8,5
2.0,790.0,6530.0,17.0,10.0,11.0,149.30737686157224,76.0,82.0,0.0,0.0,0.61073899269104,150.19474387168884,6.394658274099998,156.58940214578885,148.69663405418396,8,5
2.0,790.0,6530.0,18.0,11.0,11.0,157.1761839389801,82.0,82.0,0.0,1.0,0.5645589828491211,158.11018800735474,6.763984022100001,164.87417202945474,156.61162900924683,8,5
2.0,790.0,6530.0,19.0,12.0,11.0,165.47289204597473,82.0,76.0,2.0,0.0,0.578887939453125,166.39173889160156,7.028919837999999,173.42065872960157,164.8939919471741,8,5
2.0,790.0,6530.0,20.0,13.0,11.0,174.08859205245972,82.0,76.0,0.0,0.0,0.6455368995666504,174.94174194335935,6.198782992600001,181.14052493595935,173.44304800033566,8,5
2.0,790.0,6530.0,21.0,14.0,11.0,181.8283839225769,82.0,76.0,3.0,0.0,0.6533939838409423,182.67288899421692,7.9748496299,190.64773862411693,181.17498803138727,8,5
2.0,790.0,6530.0,22.0,15.0,11.0,191.27322101593018,82.0,76.0,0.0,0.0,0.5989620685577393,192.17191791534427,8.316670306,200.48858822134426,190.67425394058228,8,5
2.0,790.0,6530.0,23.0,16.0,11.0,201.0518898963928,82.0,82.0,0.0,1.0,0.5294401645660399,202.020082950592,6.8253593412,208.845442291792,200.52244687080383,8,5
2.0,790.0,6530.0,24.0,17.0,11.0,209.4735560417175,82.0,76.0,0.0,0.0,0.6020429134368896,210.37032294273376,6.6296212335,216.99994417623375,208.87150788307187,8,5
2.0,790.0,6530.0,25.0,18.0,11.0,217.6554970741272,82.0,82.0,4.0,1.0,0.6358418464660645,218.5182800292969,7.2176845819,225.7359646111969,217.01964592933652,8,5
2.0,790.0,6530.0,26.0,19.0,11.0,226.36251997947687,76.0,76.0,0.0,1.0,0.59377384185791,227.26662898063654,6.8306028319,234.09723181253653,225.7687420845032,8,5
2.0,790.0,6530.0,27.0,20.0,11.0,234.69290804862976,76.0,82.0,0.0,0.0,0.5746290683746337,235.6157810688019,6.2736752093,241.8894562781019,234.1182680130005,8,5
2.0,790.0,6530.0,28.0,21.0,11.0,242.50391697883603,76.0,82.0,0.0,0.0,0.5874838829040527,243.41467189788816,8.249659814899998,251.66433171278814,241.9164199829101,8,5
2.0,790.0,6530.0,29.0,0.0,12.0,252.29036998748774,82.0,76.0,2.0,0.0,0.5918700695037842,253.1968789100647,8.637534137599998,261.83441304766467,251.69849300384516,8,5
2.0,790.0,6530.0,30.0,1.0,12.0,262.4613299369812,82.0,76.0,3.0,0.0,0.5971779823303223,263.36175990104675,7.023105083000001,270.38486498404677,261.86414408683777,8,5
2.0,790.0,6530.0,31.0,2.0,12.0,271.04400086402893,76.0,82.0,3.0,0.0,0.6307651996612549,271.91083908081055,7.5219071665,279.43274624731055,270.4132289886474,8,5
2.0,790.0,6530.0,32.0,3.0,12.0,280.0785999298096,82.0,76.0,0.0,0.0,0.6170749664306641,280.9592480659485,7.9662051958,288.9254532617485,279.46151900291443,8,5
2.0,790.0,6530.0,33.0,4.0,12.0,289.53545689582825,76.0,76.0,2.0,1.0,0.5746350288391113,290.4580409526825,8.4826235838,298.9406645364825,288.960816860199,8,5
2.0,790.0,6530.0,34.0,5.0,12.0,299.53794503211975,82.0,82.0,0.0,1.0,0.5623149871826172,300.4732189178466,8.342266416399998,308.8154853342466,298.97562289237976,8,5
2.0,790.0,6530.0,35.0,6.0,12.0,309.43484902381897,76.0,82.0,0.0,0.0,0.5946080684661865,310.3393840789795,9.7943547361,320.1337388150795,308.84023690223694,8,5
2.0,790.0,6530.0,36.0,7.0,12.0,320.771516084671,82.0,82.0,0.0,1.0,0.6161201000213623,321.6530849933624,6.5511363568,328.2042213501624,320.15538907051086,8,5
2.0,790.0,6530.0,37.0,8.0,12.0,328.84225106239325,82.0,76.0,0.0,0.0,0.6048200130462646,329.73555994033813,8.360017595,338.0955775353381,328.23742794990534,8,5
2.0,790.0,6530.0,38.0,9.0,12.0,338.70398688316345,76.0,82.0,0.0,0.0,0.5842630863189697,339.6182968616485,6.5102862759,346.1285831375485,338.1197180747986,8,5
2.0,790.0,6530.0,39.0,10.0,12.0,346.7577250003814,82.0,82.0,0.0,1.0,0.6057019233703613,347.64929986000055,7.501984415,355.15128427500053,346.15201401710516,8,5
2.0,790.0,6530.0,40.0,11.0,12.0,355.74442887306213,82.0,82.0,5.0,1.0,0.5606892108917236,356.6823768615722,6.1973386952,362.8797155567722,355.18373608589167,8,5
2.0,790.0,6530.0,41.0,12.0,12.0,363.5161988735199,82.0,82.0,0.0,1.0,0.6160430908203124,364.3976769447327,8.7780430033,373.17571994803274,362.90014696121216,8,5
2.0,790.0,6530.0,42.0,13.0,12.0,373.7979559898376,82.0,76.0,0.0,0.0,0.5998530387878418,374.69575905799866,9.319084644400002,384.01484370239865,373.1980979442597,8,5
2.0,790.0,6530.0,43.0,14.0,12.0,384.67247796058655,76.0,76.0,0.0,1.0,0.6256308555603027,385.5446019172669,9.2971715128,394.8417734300669,384.04683899879456,8,5
2.0,790.0,6530.0,44.0,15.0,12.0,395.6123108863831,82.0,76.0,0.0,0.0,0.7339611053466797,396.37621808052063,7.186002986699999,403.5622210672206,394.87834095954895,8,5
2.0,790.0,6530.0,45.0,16.0,12.0,404.1312379837036,82.0,82.0,3.0,1.0,0.5373611450195312,405.09173989295965,6.996471843800001,412.08821173675966,403.59387087821955,8,5
2.0,790.0,6530.0,46.0,17.0,12.0,412.7507359981537,76.0,76.0,3.0,1.0,0.6404929161071777,413.6078350543975,6.8236166026,420.4314516569975,412.11023688316345,8,5
2.0,790.0,6530.0,47.0,18.0,12.0,421.1056280136108,76.0,76.0,0.0,1.0,0.6120400428771973,421.9896900653839,9.3791490669,431.36883913228394,420.4935810565949,8,5
2.0,790.0,6530.0,48.0,19.0,12.0,431.9643399715424,76.0,82.0,3.0,0.0,0.5736989974975585,432.8884000778199,6.6455411483,439.5339412261199,431.3906409740448,8,5
2.0,790.0,6530.0,49.0,20.0,12.0,440.1541628837586,82.0,76.0,1.0,0.0,0.5982720851898193,441.0544879436493,8.1061257643,449.16061370794927,439.55586099624634,8,5
2.0,790.0,6530.0,50.0,21.0,12.0,449.83088088035583,76.0,76.0,0.0,1.0,0.6427459716796876,450.6866669654846,6.5539072123,457.2405741777846,449.1881289482117,8,5
2.0,790.0,6530.0,51.0,22.0,12.0,457.92950606346125,76.0,82.0,0.0,0.0,0.6592519283294678,458.76775598526,6.5329013534000016,465.30065733866,457.270250082016,8,5
2.0,790.0,6530.0,52.0,23.0,12.0,465.8852899074554,82.0,82.0,3.0,1.0,0.5497431755065917,466.8343520164489,7.3765580097,474.2109100261489,465.3355419635772,8,5
2.0,790.0,6530.0,53.0,24.0,12.0,474.8309149742126,76.0,76.0,2.0,1.0,0.596372127532959,475.73214292526245,6.807756658400001,482.5398995836625,474.2345418930054,8,5
2.0,790.0,6530.0,54.0,25.0,12.0,483.1037750244141,82.0,82.0,0.0,1.0,0.5370330810546874,484.06441998481756,7.6808590475,491.74527903231757,482.5667340755463,8,5
2.0,790.0,6530.0,55.0,26.0,12.0,492.3876640796661,76.0,82.0,0.0,0.0,0.6057019233703613,493.2803499698639,8.335805110399999,501.61615508026387,491.7819559574128,8,5
2.0,790.0,6530.0,56.0,27.0,12.0,502.217227935791,76.0,76.0,3.0,1.0,0.5700061321258545,503.14506506919855,6.737836669199999,509.8829017383986,501.64721894264227,8,5
2.0,790.0,6530.0,57.0,0.0,13.0,510.52114486694336,82.0,76.0,3.0,0.0,0.6085450649261475,511.4115340709686,6.6360624811,518.0475965520686,509.9125909805298,8,5
2.0,790.0,6530.0,58.0,1.0,13.0,518.6838798522949,76.0,82.0,0.0,0.0,0.6055219173431396,519.5766429901123,6.8302877675,526.4069307576123,518.0783529281616,8,5
2.0,790.0,6530.0,59.0,2.0,13.0,527.0584938526154,76.0,76.0,4.0,1.0,0.6140069961547852,527.9425489902495,6.2067479573,534.1492969475495,526.4444818496704,8,5
