reward_code,subj_id,condition,trial,epoch_trial,epoch_number,button_press,LR_solution,LR,reward,p_accuracy,rt,trial_end,iti_length,iti_end,stim_onset,session_n,run_n
3.0,790.0,7510.0,0.0,0.0,0.0,0.525139093399048,82.0,82.0,3.0,1.0,0.5095069408416749,1.5159480571746826,6.8253593412,8.341307398374683,0.015626907348632812,3,1
3.0,790.0,7510.0,1.0,1.0,0.0,8.79103708267212,82.0,82.0,3.0,1.0,0.4266870021820068,9.864047050476074,6.8306028319,16.694649882376076,8.36434292793274,3,1
3.0,790.0,7510.0,2.0,2.0,0.0,17.17753791809082,82.0,76.0,0.0,0.0,0.447796106338501,18.22935700416565,7.5219071665,25.75126417066565,16.729737997055054,3,1
3.0,790.0,7510.0,3.0,3.0,0.0,26.16917395591736,82.0,82.0,2.0,1.0,0.3899190425872803,27.27809810638428,7.718719605,34.99681771138428,25.779248952865597,3,1
3.0,790.0,7510.0,4.0,4.0,0.0,35.42589712142944,76.0,76.0,2.0,1.0,0.3989989757537842,36.52728891372681,6.5102862759,43.03757518962681,35.0268919467926,3,1
3.0,790.0,7510.0,5.0,5.0,0.0,43.56735110282898,76.0,82.0,0.0,0.0,0.4922440052032471,44.55851101875305,6.3517212972,50.91023231595305,43.07510209083557,3,1
3.0,790.0,7510.0,6.0,6.0,0.0,51.32704591751098,76.0,82.0,0.0,0.0,0.38548183441162104,52.44025897979736,6.5996902655,59.039949245297365,50.941555976867676,3,1
3.0,790.0,7510.0,7.0,7.0,0.0,59.65472412109375,82.0,82.0,0.0,1.0,0.580686092376709,60.573610067367554,8.342266416399998,68.91587648376755,59.07403612136841,3,1
3.0,790.0,7510.0,8.0,0.0,1.0,69.38241910934448,76.0,82.0,0.0,0.0,0.4439549446105957,70.43858504295349,7.115323055599999,77.55390809855349,68.93846201896667,3,1
3.0,790.0,7510.0,9.0,1.0,1.0,78.28012895584105,82.0,82.0,0.0,1.0,0.6933820247650145,79.08644890785217,8.4826235838,87.56907249165218,77.58673906326295,3,1
3.0,790.0,7510.0,10.0,2.0,1.0,87.89277791976927,76.0,76.0,0.0,1.0,0.2905280590057373,89.10220694541931,8.796708646499999,97.8989155919193,87.60224604606628,3,1
3.0,790.0,7510.0,11.0,3.0,1.0,98.46644592285156,82.0,76.0,0.0,0.0,0.5322167873382568,99.43359398841858,6.996471843800001,106.43006583221857,97.93422293663025,3,1
3.0,790.0,7510.0,12.0,4.0,1.0,106.93705797195433,82.0,76.0,0.0,0.0,0.4867651462554932,107.94936800003053,7.6808590475,115.63022704753052,106.4502899646759,3,1
3.0,790.0,7510.0,13.0,5.0,1.0,116.0427169799805,76.0,82.0,0.0,0.0,0.377903938293457,117.16453695297238,7.9748496299,125.13938658287239,115.66480994224548,3,1
3.0,790.0,7510.0,14.0,0.0,2.0,125.58821702003479,76.0,82.0,0.0,0.0,0.42422008514404297,126.66284012794493,7.401030339199998,134.06387046714494,125.16399097442627,3,1
3.0,790.0,7510.0,15.0,1.0,2.0,134.57877492904663,76.0,82.0,1.0,0.0,0.482886791229248,135.5956220626831,6.253368926,141.8489909886831,134.09588313102722,3,1
3.0,790.0,7510.0,16.0,2.0,2.0,142.3065779209137,76.0,76.0,4.0,1.0,0.42898797988891596,143.37704610824585,6.2067479573,149.58379406554585,141.8775839805603,3,1
3.0,790.0,7510.0,17.0,3.0,2.0,150.1613919734955,76.0,76.0,0.0,1.0,0.53515887260437,151.10985112190247,8.360017595,159.46986871690245,149.62622904777527,3,1
3.0,790.0,7510.0,18.0,4.0,2.0,159.9248309135437,82.0,76.0,0.0,0.0,0.4333679676055908,160.9906580448151,6.142144360600001,167.1328024054151,159.49146008491516,3,1
3.0,790.0,7510.0,19.0,0.0,3.0,167.71743702888486,82.0,76.0,0.0,0.0,0.5606238842010497,168.65657901763916,6.6296212335,175.28620025113915,167.15680313110352,3,1
3.0,790.0,7510.0,20.0,1.0,3.0,175.78432393074036,82.0,82.0,0.0,1.0,0.4788129329681396,176.80529499053955,6.5511363568,183.35643134733954,175.3055031299591,3,1
3.0,790.0,7510.0,21.0,2.0,3.0,183.90482711791995,82.0,82.0,4.0,1.0,0.5172359943389891,184.8875560760498,6.737836669199999,191.6253927452498,183.38758611679077,3,1
3.0,790.0,7510.0,22.0,3.0,3.0,192.1125500202179,76.0,76.0,1.0,1.0,0.4590370655059814,193.15227794647217,8.316670306,201.46894825247216,191.65350699424744,3,1
3.0,790.0,7510.0,23.0,4.0,3.0,201.97518897056577,82.0,82.0,3.0,1.0,0.4728379249572753,203.0012099742889,9.3791490669,212.3803590411889,201.5023441314697,3,1
3.0,790.0,7510.0,24.0,5.0,3.0,212.89201211929318,76.0,76.0,2.0,1.0,0.4383490085601808,213.9523401260376,6.394658274099998,220.3469984001376,212.45365595817563,3,1
3.0,790.0,7510.0,25.0,6.0,3.0,220.92279601097104,76.0,76.0,1.0,1.0,0.5535409450531005,221.86891007423398,7.3765580097,229.24546808393399,220.36924505233765,3,1
3.0,790.0,7510.0,26.0,7.0,3.0,229.7233979701996,76.0,76.0,3.0,1.0,0.4559509754180908,230.7667241096496,6.1614575639,236.9281816735496,229.2674460411072,3,1
3.0,790.0,7510.0,27.0,8.0,3.0,237.467453956604,82.0,76.0,0.0,0.0,0.5169920921325684,238.44895911216733,8.1061257643,246.55508487646733,236.95045399665827,3,1
3.0,790.0,7510.0,28.0,9.0,3.0,247.19369196891782,76.0,76.0,5.0,1.0,0.6115078926086426,248.08100509643555,7.186002986699999,255.26700808313555,246.5821800231933,3,1
3.0,790.0,7510.0,29.0,10.0,3.0,255.72457909584045,76.0,76.0,2.0,1.0,0.42668294906616205,256.7971761226654,6.5329013534000016,263.3300774760654,255.29788994789126,3,1
3.0,790.0,7510.0,30.0,11.0,3.0,263.872309923172,76.0,76.0,2.0,1.0,0.5102710723876953,264.8627090454101,7.501984415,272.3646934604101,263.36203503608704,3,1
3.0,790.0,7510.0,31.0,0.0,4.0,272.8731269836426,76.0,76.0,0.0,1.0,0.4776961803436279,273.8944330215454,8.637534137599998,282.5319671591454,272.3954269886016,3,1
3.0,790.0,7510.0,32.0,1.0,4.0,283.01276302337646,82.0,76.0,0.0,0.0,0.4526188373565674,284.05940794944763,9.319084644400002,293.3784925938476,282.56013894081116,3,1
3.0,790.0,7510.0,33.0,2.0,4.0,294.05837893486023,76.0,76.0,1.0,1.0,0.650285005569458,294.9076089859009,9.2971715128,304.20478049870087,293.4080910682678,3,1
3.0,790.0,7510.0,34.0,3.0,4.0,304.82416009902954,76.0,76.0,2.0,1.0,0.5835170745849609,305.74040102958685,7.9662051958,313.70660622538685,304.2406349182129,3,1
3.0,790.0,7510.0,35.0,4.0,4.0,314.24285697937006,76.0,76.0,4.0,1.0,0.5047299861907959,315.23836398124695,6.8236166026,322.06198058384695,313.7381229400635,3,1
3.0,790.0,7510.0,36.0,0.0,5.0,322.560616016388,76.0,82.0,0.0,0.0,0.4721298217773437,323.58721804618835,8.249659814899998,331.83687786108834,322.0884840488434,3,1
3.0,790.0,7510.0,37.0,1.0,5.0,332.4253239631653,82.0,76.0,0.0,0.0,0.555109977722168,333.36944794654846,6.2146412383,339.58408918484844,331.87021112442017,3,1
3.0,790.0,7510.0,38.0,2.0,5.0,340.18093609809875,76.0,76.0,4.0,1.0,0.5625040531158447,341.1186330318451,6.5539072123,347.67254024414507,339.6184239387512,3,1
3.0,790.0,7510.0,39.0,3.0,5.0,348.19493794441223,76.0,76.0,4.0,1.0,0.4938712120056152,349.20062994956965,6.6360624811,355.83669243066964,347.7010610103607,3,1
3.0,790.0,7510.0,40.0,4.0,5.0,356.33548307418823,76.0,76.0,0.0,1.0,0.4693379402160645,357.3664700984955,6.807756658400001,364.1742267568955,355.8661410808563,3,1
3.0,790.0,7510.0,41.0,5.0,5.0,364.741984128952,82.0,76.0,0.0,0.0,0.54433012008667,365.6984739303589,8.2252081357,373.92368206605886,364.19764494895935,3,1
3.0,790.0,7510.0,42.0,6.0,5.0,374.6975469589233,82.0,,0.0,,,375.4471580982208,8.7780430033,384.22520110152084,373.9469439983368,3,1
3.0,790.0,7510.0,43.0,7.0,5.0,384.7697379589081,76.0,82.0,4.0,0.0,0.5239348411560057,385.74522495269775,6.6455411483,392.3907661009978,384.2457981109619,3,1
3.0,790.0,7510.0,44.0,8.0,5.0,393.03565096855164,82.0,76.0,1.0,0.0,0.6243689060211182,393.9103829860687,7.2176845819,401.12806756796874,392.4112761020661,3,1
3.0,790.0,7510.0,45.0,9.0,5.0,401.66805911064154,82.0,76.0,0.0,0.0,0.5076940059661865,402.6598479747772,6.1973386952,408.85718666997724,401.16035795211786,3,1
3.0,790.0,7510.0,46.0,10.0,5.0,409.38064599037176,76.0,82.0,0.0,0.0,0.4892430305480957,410.3919711112976,8.335805110399999,418.7277762216976,408.89139795303345,3,1
3.0,790.0,7510.0,47.0,0.0,6.0,419.25255203247076,82.0,76.0,0.0,0.0,0.4949500560760498,420.2563030719757,7.023105083000001,427.2794081549757,418.75759911537165,3,1
3.0,790.0,7510.0,48.0,1.0,6.0,427.77015614509577,82.0,82.0,3.0,1.0,0.4637160301208496,428.8056390285492,7.028919837999999,435.8345588665492,427.3064630031585,3,1
3.0,790.0,7510.0,49.0,2.0,6.0,436.4168879985808,76.0,76.0,2.0,1.0,0.5615320205688477,437.354660987854,6.198782992600001,443.553443980454,435.855348110199,3,1
3.0,790.0,7510.0,50.0,3.0,6.0,444.16997194290167,76.0,76.0,0.0,1.0,0.5829181671142578,445.08674001693726,6.3175218564,451.40426187333725,443.58704900741577,3,1
3.0,790.0,7510.0,51.0,4.0,6.0,452.0383570194244,76.0,76.0,4.0,1.0,0.601855993270874,452.9357450008392,9.6231719091,462.55891690993917,451.4364929199219,3,1
3.0,790.0,7510.0,52.0,5.0,6.0,463.0784320831299,82.0,82.0,3.0,1.0,0.493659019470215,464.08418798446655,6.8302877675,470.91447575196656,462.58476710319525,3,1
3.0,790.0,7510.0,53.0,6.0,6.0,471.456906080246,82.0,82.0,2.0,1.0,0.5064790248870848,472.4495000839232,6.763984022100001,479.2134841060232,470.95041894912714,3,1
3.0,790.0,7510.0,54.0,7.0,6.0,479.76952314376825,82.0,82.0,1.0,1.0,0.521064043045044,480.7476780414581,6.2736752093,487.02135325075807,479.24845409393316,3,1
3.0,790.0,7510.0,55.0,8.0,6.0,487.62442398071283,82.0,76.0,3.0,0.0,0.5766968727111816,488.54656195640564,6.6602143789,495.2067763353056,487.04772090911865,3,1
3.0,790.0,7510.0,56.0,9.0,6.0,495.7992761135101,76.0,82.0,0.0,0.0,0.5695381164550781,496.729171037674,9.1766548792,505.905825916874,495.22973299026495,3,1
3.0,790.0,7510.0,57.0,10.0,6.0,506.4586830139161,76.0,76.0,3.0,1.0,0.5299160480499268,507.42748713493353,9.7943547361,517.2218418710336,505.9287569522858,3,1
3.0,790.0,7510.0,58.0,0.0,7.0,517.8736009597778,82.0,82.0,0.0,1.0,0.6298208236694336,518.7423930168152,7.833443911,526.5758369278152,517.243772983551,3,1
3.0,790.0,7510.0,59.0,1.0,7.0,527.0371091365814,76.0,82.0,3.0,0.0,0.428333044052124,528.1083710193633,6.1189629448,534.2273339641633,526.6087720394136,3,1
