stim_onset, stim_duration, trial_type, rt, accuracy, epoch_length,epoch_trial, epoch_number
1.614999771118164062e-02	1.491341114044189453e+00	0.000000000000000000e+00	5.314650535583496094e-01	0.000000000000000000e+00	2.400000000000000000e+01	1.900000000000000000e+01	8.000000000000000000e+00
7.164978027343750000e+00	1.491950035095214844e+00	1.000000000000000000e+00	5.253608226776123047e-01	0.000000000000000000e+00	2.400000000000000000e+01	2.000000000000000000e+01	8.000000000000000000e+00
1.553030896186828613e+01	1.499833106994628906e+00	2.000000000000000000e+00	6.037850379943847656e-01	1.000000000000000000e+00	2.400000000000000000e+01	2.100000000000000000e+01	8.000000000000000000e+00
2.457887601852416992e+01	1.492357969284057617e+00	3.000000000000000000e+00	5.571432113647460938e-01	1.000000000000000000e+00	2.400000000000000000e+01	2.200000000000000000e+01	8.000000000000000000e+00
3.144519400596618652e+01	1.490808963775634766e+00	4.000000000000000000e+00	5.784451961517333984e-01	1.000000000000000000e+00	2.400000000000000000e+01	2.300000000000000000e+01	8.000000000000000000e+00
3.829405713081359863e+01	1.500303983688354492e+00	5.000000000000000000e+00	5.835399627685546875e-01	0.000000000000000000e+00	2.400000000000000000e+01	0.000000000000000000e+00	9.000000000000000000e+00
5.327465105056762695e+01	1.500468969345092773e+00	6.000000000000000000e+00	6.555500030517578125e-01	0.000000000000000000e+00	2.400000000000000000e+01	1.000000000000000000e+00	9.000000000000000000e+00
5.887462902069091797e+01	1.491777896881103516e+00	7.000000000000000000e+00	5.880851745605468750e-01	0.000000000000000000e+00	2.400000000000000000e+01	2.000000000000000000e+00	9.000000000000000000e+00
6.588983607292175293e+01	1.491318941116333008e+00	8.000000000000000000e+00	5.678060054779052734e-01	1.000000000000000000e+00	2.400000000000000000e+01	3.000000000000000000e+00	9.000000000000000000e+00
7.210570311546325684e+01	1.499305009841918945e+00	9.000000000000000000e+00	5.219280719757080078e-01	1.000000000000000000e+00	2.400000000000000000e+01	4.000000000000000000e+00	9.000000000000000000e+00
7.805519104003906250e+01	1.499135971069335938e+00	1.000000000000000000e+01	5.971288681030273438e-01	1.000000000000000000e+00	2.400000000000000000e+01	5.000000000000000000e+00	9.000000000000000000e+00
9.163621807098388672e+01	1.491492033004760742e+00	1.100000000000000000e+01	4.645929336547851562e-01	1.000000000000000000e+00	2.400000000000000000e+01	6.000000000000000000e+00	9.000000000000000000e+00
9.895233201980590820e+01	1.499903917312622070e+00	1.200000000000000000e+01	5.581750869750976562e-01	1.000000000000000000e+00	2.400000000000000000e+01	7.000000000000000000e+00	9.000000000000000000e+00
1.100003619194030762e+02	1.500498056411743164e+00	1.300000000000000000e+01	5.559198856353759766e-01	1.000000000000000000e+00	2.400000000000000000e+01	8.000000000000000000e+00	9.000000000000000000e+00
1.167486231327056885e+02	1.500844001770019531e+00	1.400000000000000000e+01	5.714190006256103516e-01	1.000000000000000000e+00	2.400000000000000000e+01	9.000000000000000000e+00	9.000000000000000000e+00
1.279475679397583008e+02	1.491837024688720703e+00	1.500000000000000000e+01	6.140899658203125000e-01	1.000000000000000000e+00	2.400000000000000000e+01	1.000000000000000000e+01	9.000000000000000000e+00
1.391463649272918701e+02	1.491150140762329102e+00	1.600000000000000000e+01	5.249440670013427734e-01	1.000000000000000000e+00	2.400000000000000000e+01	1.100000000000000000e+01	9.000000000000000000e+00
1.462616190910339355e+02	1.490806818008422852e+00	1.700000000000000000e+01	5.543639659881591797e-01	1.000000000000000000e+00	2.400000000000000000e+01	1.200000000000000000e+01	9.000000000000000000e+00
1.568603041172027588e+02	1.499221801757812500e+00	1.800000000000000000e+01	5.266079902648925781e-01	1.000000000000000000e+00	2.400000000000000000e+01	1.300000000000000000e+01	9.000000000000000000e+00
1.731913490295410156e+02	1.500204086303710938e+00	1.900000000000000000e+01	5.121328830718994141e-01	1.000000000000000000e+00	2.400000000000000000e+01	1.400000000000000000e+01	9.000000000000000000e+00
1.813742709159851074e+02	1.498783111572265625e+00	2.000000000000000000e+01	6.419489383697509766e-01	1.000000000000000000e+00	2.400000000000000000e+01	1.500000000000000000e+01	9.000000000000000000e+00
1.872063250541687012e+02	1.490791082382202148e+00	2.100000000000000000e+01	6.266810894012451172e-01	1.000000000000000000e+00	2.400000000000000000e+01	1.600000000000000000e+01	9.000000000000000000e+00
1.927382760047912598e+02	1.500325918197631836e+00	2.200000000000000000e+01	5.653741359710693359e-01	1.000000000000000000e+00	2.400000000000000000e+01	1.700000000000000000e+01	9.000000000000000000e+00
1.997872910499572754e+02	1.500025987625122070e+00	2.300000000000000000e+01	4.670808315277099609e-01	1.000000000000000000e+00	2.400000000000000000e+01	1.800000000000000000e+01	9.000000000000000000e+00
2.061863400936126709e+02	1.499826908111572266e+00	2.400000000000000000e+01	4.871881008148193359e-01	1.000000000000000000e+00	2.400000000000000000e+01	1.900000000000000000e+01	9.000000000000000000e+00
2.129190199375152588e+02	1.491561174392700195e+00	2.500000000000000000e+01	6.301910877227783203e-01	0.000000000000000000e+00	2.400000000000000000e+01	2.000000000000000000e+01	9.000000000000000000e+00
2.194683470726013184e+02	1.491571903228759766e+00	2.600000000000000000e+01	5.725409984588623047e-01	0.000000000000000000e+00	2.400000000000000000e+01	2.100000000000000000e+01	9.000000000000000000e+00
2.269176549911499023e+02	1.498775959014892578e+00	2.700000000000000000e+01	5.971779823303222656e-01	0.000000000000000000e+00	2.400000000000000000e+01	2.200000000000000000e+01	9.000000000000000000e+00
2.326328439712524414e+02	1.491873979568481445e+00	2.800000000000000000e+01	6.009621620178222656e-01	1.000000000000000000e+00	2.400000000000000000e+01	2.300000000000000000e+01	9.000000000000000000e+00
2.399817709922790527e+02	1.491106986999511719e+00	2.900000000000000000e+01	5.544810295104980469e-01	1.000000000000000000e+00	2.300000000000000000e+01	0.000000000000000000e+00	1.000000000000000000e+01
2.511471970081329346e+02	1.490693092346191406e+00	3.000000000000000000e+01	5.957088470458984375e-01	1.000000000000000000e+00	2.300000000000000000e+01	1.000000000000000000e+00	1.000000000000000000e+01
2.573788919448852539e+02	1.492271184921264648e+00	3.100000000000000000e+01	5.898931026458740234e-01	1.000000000000000000e+00	2.300000000000000000e+01	2.000000000000000000e+00	1.000000000000000000e+01
2.640956089496612549e+02	1.499068975448608398e+00	3.200000000000000000e+01	5.341069698333740234e-01	1.000000000000000000e+00	2.300000000000000000e+01	3.000000000000000000e+00	1.000000000000000000e+01
2.706779110431671143e+02	1.499665021896362305e+00	3.300000000000000000e+01	5.774121284484863281e-01	1.000000000000000000e+00	2.300000000000000000e+01	4.000000000000000000e+00	1.000000000000000000e+01
2.791430349349975586e+02	1.490872144699096680e+00	3.400000000000000000e+01	5.721428394317626953e-01	1.000000000000000000e+00	2.300000000000000000e+01	5.000000000000000000e+00	1.000000000000000000e+01
2.889076640605926514e+02	1.492238998413085938e+00	3.500000000000000000e+01	6.040098667144775391e-01	1.000000000000000000e+00	2.300000000000000000e+01	6.000000000000000000e+00	1.000000000000000000e+01
2.967909660339355469e+02	1.498964071273803711e+00	3.600000000000000000e+01	6.805148124694824219e-01	0.000000000000000000e+00	2.300000000000000000e+01	7.000000000000000000e+00	1.000000000000000000e+01
3.023725509643554688e+02	1.499829053878784180e+00	3.700000000000000000e+01	5.992250442504882812e-01	1.000000000000000000e+00	2.300000000000000000e+01	8.000000000000000000e+00	1.000000000000000000e+01
3.080810039043426514e+02	1.491665124893188477e+00	3.800000000000000000e+01	5.848329067230224609e-01	1.000000000000000000e+00	2.300000000000000000e+01	9.000000000000000000e+00	1.000000000000000000e+01
3.168801510334014893e+02	1.499392032623291016e+00	3.900000000000000000e+01	5.717530250549316406e-01	0.000000000000000000e+00	2.300000000000000000e+01	1.000000000000000000e+01	1.000000000000000000e+01
3.241120550632476807e+02	1.499827861785888672e+00	4.000000000000000000e+01	5.163071155548095703e-01	0.000000000000000000e+00	2.300000000000000000e+01	1.100000000000000000e+01	1.000000000000000000e+01
3.305440919399261475e+02	1.500156164169311523e+00	4.100000000000000000e+01	4.731819629669189453e-01	0.000000000000000000e+00	2.300000000000000000e+01	1.200000000000000000e+01	1.000000000000000000e+01
3.384098870754241943e+02	1.499722003936767578e+00	4.200000000000000000e+01	5.592310428619384766e-01	0.000000000000000000e+00	2.300000000000000000e+01	1.300000000000000000e+01	1.000000000000000000e+01
3.466424770355224609e+02	1.499641895294189453e+00	4.300000000000000000e+01	5.212798118591308594e-01	0.000000000000000000e+00	2.300000000000000000e+01	1.400000000000000000e+01	1.000000000000000000e+01
3.614236159324645996e+02	1.491229057312011719e+00	4.400000000000000000e+01	5.107550621032714844e-01	0.000000000000000000e+00	2.300000000000000000e+01	1.500000000000000000e+01	1.000000000000000000e+01
3.684888930320739746e+02	1.499847888946533203e+00	4.500000000000000000e+01	5.956010818481445312e-01	0.000000000000000000e+00	2.300000000000000000e+01	1.600000000000000000e+01	1.000000000000000000e+01
3.794540491104125977e+02	1.492093801498413086e+00	4.600000000000000000e+01	6.359848976135253906e-01	1.000000000000000000e+00	2.300000000000000000e+01	1.700000000000000000e+01	1.000000000000000000e+01
3.862369489669799805e+02	1.499389171600341797e+00	4.700000000000000000e+01	5.388829708099365234e-01	1.000000000000000000e+00	2.300000000000000000e+01	1.800000000000000000e+01	1.000000000000000000e+01
3.934019689559936523e+02	1.500439167022705078e+00	4.800000000000000000e+01	4.884970188140869141e-01	1.000000000000000000e+00	2.300000000000000000e+01	1.900000000000000000e+01	1.000000000000000000e+01
3.999852650165557861e+02	1.499694108963012695e+00	4.900000000000000000e+01	5.943660736083984375e-01	1.000000000000000000e+00	2.300000000000000000e+01	2.000000000000000000e+01	1.000000000000000000e+01
4.058509840965270996e+02	1.499914884567260742e+00	5.000000000000000000e+01	5.911569595336914062e-01	1.000000000000000000e+00	2.300000000000000000e+01	2.100000000000000000e+01	1.000000000000000000e+01
4.118495829105377197e+02	1.491075038909912109e+00	5.100000000000000000e+01	5.874290466308593750e-01	1.000000000000000000e+00	2.300000000000000000e+01	2.200000000000000000e+01	1.000000000000000000e+01
4.225315020084381104e+02	1.499635934829711914e+00	5.200000000000000000e+01	6.412720680236816406e-01	0.000000000000000000e+00	2.400000000000000000e+01	0.000000000000000000e+00	1.100000000000000000e+01
4.328470249176025391e+02	1.499024152755737305e+00	5.300000000000000000e+01	5.604009628295898438e-01	0.000000000000000000e+00	2.400000000000000000e+01	1.000000000000000000e+00	1.100000000000000000e+01
4.386126890182495117e+02	1.491558074951171875e+00	5.400000000000000000e+01	5.295879840850830078e-01	0.000000000000000000e+00	2.400000000000000000e+01	2.000000000000000000e+00	1.100000000000000000e+01
4.450114269256591797e+02	1.500606060028076172e+00	5.500000000000000000e+01	5.218648910522460938e-01	0.000000000000000000e+00	2.400000000000000000e+01	3.000000000000000000e+00	1.100000000000000000e+01
4.608762030601501465e+02	1.491389036178588867e+00	5.600000000000000000e+01	7.193930149078369141e-01	0.000000000000000000e+00	2.400000000000000000e+01	4.000000000000000000e+00	1.100000000000000000e+01
4.709917309284210205e+02	1.500321149826049805e+00	5.700000000000000000e+01	4.846458435058593750e-01	1.000000000000000000e+00	2.400000000000000000e+01	5.000000000000000000e+00	1.100000000000000000e+01
4.800572140216827393e+02	1.491270065307617188e+00	5.800000000000000000e+01	5.371570587158203125e-01	1.000000000000000000e+00	2.400000000000000000e+01	6.000000000000000000e+00	1.100000000000000000e+01
4.893389000892639160e+02	1.500162839889526367e+00	5.900000000000000000e+01	6.381309032440185547e-01	1.000000000000000000e+00	2.400000000000000000e+01	7.000000000000000000e+00	1.100000000000000000e+01
