stim_onset, stim_duration, trial_type, rt, accuracy, epoch_length,epoch_trial, epoch_number
1.607394218444824219e-02	1.491826057434082031e+00	0.000000000000000000e+00	5.179769992828369141e-01	0.000000000000000000e+00	2.600000000000000000e+01	3.000000000000000000e+00	6.000000000000000000e+00
8.907235860824584961e+00	1.491579055786132812e+00	1.000000000000000000e+00	6.515951156616210938e-01	0.000000000000000000e+00	2.600000000000000000e+01	4.000000000000000000e+00	6.000000000000000000e+00
1.860656285285949707e+01	1.499478101730346680e+00	2.000000000000000000e+00	4.698061943054199219e-01	0.000000000000000000e+00	2.600000000000000000e+01	5.000000000000000000e+00	6.000000000000000000e+00
2.907177782058715820e+01	1.498956203460693359e+00	3.000000000000000000e+00	5.874340534210205078e-01	0.000000000000000000e+00	2.600000000000000000e+01	6.000000000000000000e+00	6.000000000000000000e+00
3.688730001449584961e+01	1.499728918075561523e+00	4.000000000000000000e+00	6.304020881652832031e-01	0.000000000000000000e+00	2.600000000000000000e+01	7.000000000000000000e+00	6.000000000000000000e+00
4.323550391197204590e+01	1.500787973403930664e+00	5.000000000000000000e+00	5.371448993682861328e-01	0.000000000000000000e+00	2.600000000000000000e+01	8.000000000000000000e+00	6.000000000000000000e+00
4.900234293937683105e+01	1.498528003692626953e+00	6.000000000000000000e+00	4.984550476074218750e-01	0.000000000000000000e+00	2.600000000000000000e+01	9.000000000000000000e+00	6.000000000000000000e+00
6.248320293426513672e+01	1.500138998031616211e+00	7.000000000000000000e+00	4.989659786224365234e-01	0.000000000000000000e+00	2.600000000000000000e+01	1.000000000000000000e+01	6.000000000000000000e+00
7.224887490272521973e+01	1.490603923797607422e+00	8.000000000000000000e+00	4.569051265716552734e-01	0.000000000000000000e+00	2.600000000000000000e+01	1.100000000000000000e+01	6.000000000000000000e+00
7.918075585365295410e+01	1.499650001525878906e+00	9.000000000000000000e+00	5.037579536437988281e-01	0.000000000000000000e+00	2.600000000000000000e+01	1.200000000000000000e+01	6.000000000000000000e+00
8.486306691169738770e+01	1.491949081420898438e+00	1.000000000000000000e+01	5.374870300292968750e-01	0.000000000000000000e+00	2.600000000000000000e+01	1.300000000000000000e+01	6.000000000000000000e+00
9.656094884872436523e+01	1.491767168045043945e+00	1.100000000000000000e+01	4.900720119476318359e-01	0.000000000000000000e+00	2.600000000000000000e+01	1.400000000000000000e+01	6.000000000000000000e+00
1.029781160354614258e+02	1.498892784118652344e+00	1.200000000000000000e+01	4.837927818298339844e-01	0.000000000000000000e+00	2.600000000000000000e+01	1.500000000000000000e+01	6.000000000000000000e+00
1.124264819622039795e+02	1.491069078445434570e+00	1.300000000000000000e+01	4.879710674285888672e-01	0.000000000000000000e+00	2.600000000000000000e+01	1.600000000000000000e+01	6.000000000000000000e+00
1.182586560249328613e+02	1.491617918014526367e+00	1.400000000000000000e+01	5.616338253021240234e-01	0.000000000000000000e+00	2.600000000000000000e+01	1.700000000000000000e+01	6.000000000000000000e+00
1.255736958980560303e+02	1.499938011169433594e+00	1.500000000000000000e+01	4.795069694519042969e-01	0.000000000000000000e+00	2.600000000000000000e+01	1.800000000000000000e+01	6.000000000000000000e+00
1.363224530220031738e+02	1.500157833099365234e+00	1.600000000000000000e+01	5.171799659729003906e-01	0.000000000000000000e+00	2.600000000000000000e+01	1.900000000000000000e+01	6.000000000000000000e+00
1.439052138328552246e+02	1.499616146087646484e+00	1.700000000000000000e+01	5.313961505889892578e-01	0.000000000000000000e+00	2.600000000000000000e+01	2.000000000000000000e+01	6.000000000000000000e+00
1.526868388652801514e+02	1.500455141067504883e+00	1.800000000000000000e+01	5.905370712280273438e-01	1.000000000000000000e+00	2.600000000000000000e+01	2.100000000000000000e+01	6.000000000000000000e+00
1.606858808994293213e+02	1.499630928039550781e+00	1.900000000000000000e+01	5.716249942779541016e-01	1.000000000000000000e+00	2.600000000000000000e+01	2.200000000000000000e+01	6.000000000000000000e+00
1.670679810047149658e+02	1.491452932357788086e+00	2.000000000000000000e+01	5.648930072784423828e-01	1.000000000000000000e+00	2.600000000000000000e+01	2.300000000000000000e+01	6.000000000000000000e+00
1.736840019226074219e+02	1.500745058059692383e+00	2.100000000000000000e+01	5.576119422912597656e-01	1.000000000000000000e+00	2.600000000000000000e+01	2.400000000000000000e+01	6.000000000000000000e+00
1.802166700363159180e+02	1.499485015869140625e+00	2.200000000000000000e+01	5.899209976196289062e-01	1.000000000000000000e+00	2.600000000000000000e+01	2.500000000000000000e+01	6.000000000000000000e+00
1.883648848533630371e+02	1.491425037384033203e+00	2.300000000000000000e+01	4.932658672332763672e-01	0.000000000000000000e+00	1.800000000000000000e+01	0.000000000000000000e+00	7.000000000000000000e+00
1.955467858314514160e+02	1.500724077224731445e+00	2.400000000000000000e+01	6.371788978576660156e-01	0.000000000000000000e+00	1.800000000000000000e+01	1.000000000000000000e+00	7.000000000000000000e+00
2.065957498550415039e+02	1.499818086624145508e+00	2.500000000000000000e+01	6.338450908660888672e-01	0.000000000000000000e+00	1.800000000000000000e+01	2.000000000000000000e+00	7.000000000000000000e+00
2.136448159217834473e+02	1.499929904937744141e+00	2.600000000000000000e+01	5.436229705810546875e-01	0.000000000000000000e+00	1.800000000000000000e+01	3.000000000000000000e+00	7.000000000000000000e+00
2.206267919540405273e+02	1.492395877838134766e+00	2.700000000000000000e+01	6.462769508361816406e-01	0.000000000000000000e+00	1.800000000000000000e+01	4.000000000000000000e+00	7.000000000000000000e+00
2.265097830295562744e+02	1.490913867950439453e+00	2.800000000000000000e+01	5.113658905029296875e-01	0.000000000000000000e+00	1.800000000000000000e+01	5.000000000000000000e+00	7.000000000000000000e+00
2.329591438770294189e+02	1.491232156753540039e+00	2.900000000000000000e+01	5.815279483795166016e-01	0.000000000000000000e+00	1.800000000000000000e+01	6.000000000000000000e+00	7.000000000000000000e+00
2.408077328205108643e+02	1.500166177749633789e+00	3.000000000000000000e+01	5.629639625549316406e-01	0.000000000000000000e+00	1.800000000000000000e+01	7.000000000000000000e+00	7.000000000000000000e+00
2.541559138298034668e+02	1.490641117095947266e+00	3.100000000000000000e+01	5.722520351409912109e-01	0.000000000000000000e+00	1.800000000000000000e+01	8.000000000000000000e+00	7.000000000000000000e+00
2.629039719104766846e+02	1.501166105270385742e+00	3.200000000000000000e+01	6.930549144744873047e-01	0.000000000000000000e+00	1.800000000000000000e+01	9.000000000000000000e+00	7.000000000000000000e+00
2.688532848358154297e+02	1.500891208648681641e+00	3.300000000000000000e+01	5.725638866424560547e-01	0.000000000000000000e+00	1.800000000000000000e+01	1.000000000000000000e+01	7.000000000000000000e+00
2.744696819782257080e+02	1.498934030532836914e+00	3.400000000000000000e+01	6.197910308837890625e-01	0.000000000000000000e+00	1.800000000000000000e+01	1.100000000000000000e+01	7.000000000000000000e+00
2.836177370548248291e+02	1.501069784164428711e+00	3.500000000000000000e+01	5.335199832916259766e-01	0.000000000000000000e+00	1.800000000000000000e+01	1.200000000000000000e+01	7.000000000000000000e+00
2.989493348598480225e+02	1.491883039474487305e+00	3.600000000000000000e+01	6.005771160125732422e-01	0.000000000000000000e+00	1.800000000000000000e+01	1.300000000000000000e+01	7.000000000000000000e+00
3.072982349395751953e+02	1.491152048110961914e+00	3.700000000000000000e+01	6.063179969787597656e-01	0.000000000000000000e+00	1.800000000000000000e+01	1.400000000000000000e+01	7.000000000000000000e+00
3.153808319568634033e+02	1.499518871307373047e+00	3.800000000000000000e+01	6.476850509643554688e-01	0.000000000000000000e+00	1.800000000000000000e+01	1.500000000000000000e+01	7.000000000000000000e+00
3.231290898323059082e+02	1.500734090805053711e+00	3.900000000000000000e+01	5.419239997863769531e-01	0.000000000000000000e+00	1.800000000000000000e+01	1.600000000000000000e+01	7.000000000000000000e+00
3.290783979892730713e+02	1.491891860961914062e+00	4.000000000000000000e+01	5.596590042114257812e-01	0.000000000000000000e+00	1.800000000000000000e+01	1.700000000000000000e+01	7.000000000000000000e+00
3.355444648265838623e+02	1.490971088409423828e+00	4.100000000000000000e+01	5.282838344573974609e-01	1.000000000000000000e+00	2.400000000000000000e+01	0.000000000000000000e+00	8.000000000000000000e+00
3.430100078582763672e+02	1.499505043029785156e+00	4.200000000000000000e+01	5.583970546722412109e-01	1.000000000000000000e+00	2.400000000000000000e+01	1.000000000000000000e+00	8.000000000000000000e+00
3.522247159481048584e+02	1.499993085861206055e+00	4.300000000000000000e+01	7.063701152801513672e-01	0.000000000000000000e+00	2.400000000000000000e+01	2.000000000000000000e+00	8.000000000000000000e+00
3.587912390232086182e+02	1.491816997528076172e+00	4.400000000000000000e+01	6.007690429687500000e-01	1.000000000000000000e+00	2.400000000000000000e+01	3.000000000000000000e+00	8.000000000000000000e+00
3.652905099391937256e+02	1.498671054840087891e+00	4.500000000000000000e+01	5.762090682983398438e-01	1.000000000000000000e+00	2.400000000000000000e+01	4.000000000000000000e+00	8.000000000000000000e+00
3.741051819324493408e+02	1.500469923019409180e+00	4.600000000000000000e+01	5.194509029388427734e-01	0.000000000000000000e+00	2.400000000000000000e+01	5.000000000000000000e+00	8.000000000000000000e+00
3.807386569976806641e+02	1.499038934707641602e+00	4.700000000000000000e+01	4.455909729003906250e-01	0.000000000000000000e+00	2.400000000000000000e+01	6.000000000000000000e+00	8.000000000000000000e+00
3.923027670383453369e+02	1.499866008758544922e+00	4.800000000000000000e+01	6.323249340057373047e-01	0.000000000000000000e+00	2.400000000000000000e+01	7.000000000000000000e+00	8.000000000000000000e+00
3.991515598297119141e+02	1.492410182952880859e+00	4.900000000000000000e+01	4.781529903411865234e-01	0.000000000000000000e+00	2.400000000000000000e+01	8.000000000000000000e+00	8.000000000000000000e+00
4.050181720256805420e+02	1.499560832977294922e+00	5.000000000000000000e+01	5.334210395812988281e-01	0.000000000000000000e+00	2.400000000000000000e+01	9.000000000000000000e+00	8.000000000000000000e+00
4.131666798591613770e+02	1.491883993148803711e+00	5.100000000000000000e+01	4.677948951721191406e-01	0.000000000000000000e+00	2.400000000000000000e+01	1.000000000000000000e+01	8.000000000000000000e+00
4.206320710182189941e+02	1.491731882095336914e+00	5.200000000000000000e+01	5.160868167877197266e-01	0.000000000000000000e+00	2.400000000000000000e+01	1.100000000000000000e+01	8.000000000000000000e+00
4.283814558982849121e+02	1.490782976150512695e+00	5.300000000000000000e+01	6.076638698577880859e-01	0.000000000000000000e+00	2.400000000000000000e+01	1.200000000000000000e+01	8.000000000000000000e+00
4.374959969520568848e+02	1.492285013198852539e+00	5.400000000000000000e+01	6.045629978179931641e-01	0.000000000000000000e+00	2.400000000000000000e+01	1.300000000000000000e+01	8.000000000000000000e+00
4.520936439037322998e+02	1.500082015991210938e+00	5.500000000000000000e+01	5.404758453369140625e-01	0.000000000000000000e+00	2.400000000000000000e+01	1.400000000000000000e+01	8.000000000000000000e+00
4.580762908458709717e+02	1.492068052291870117e+00	5.600000000000000000e+01	5.486259460449218750e-01	0.000000000000000000e+00	2.400000000000000000e+01	1.500000000000000000e+01	8.000000000000000000e+00
4.636928849220275879e+02	1.490783929824829102e+00	5.700000000000000000e+01	5.730080604553222656e-01	0.000000000000000000e+00	2.400000000000000000e+01	1.600000000000000000e+01	8.000000000000000000e+00
4.715074598789215088e+02	1.492182970046997070e+00	5.800000000000000000e+01	5.440351963043212891e-01	0.000000000000000000e+00	2.400000000000000000e+01	1.700000000000000000e+01	8.000000000000000000e+00
4.785069949626922607e+02	1.500180006027221680e+00	5.900000000000000000e+01	4.732420444488525391e-01	0.000000000000000000e+00	2.400000000000000000e+01	1.800000000000000000e+01	8.000000000000000000e+00
