reward_code,subj_id,condition,trial,epoch_trial,epoch_number,button_press,LR_solution,LR,reward,p_accuracy,rt,trial_end,iti_length,iti_end,stim_onset,session_n,run_n
4.0,860.0,7520.0,0.0,1.0,10.0,0.5068721771240234,82.0,82.0,2.0,1.0,0.4907181262969971,1.5052170753479004,4.42815269569256,5.933369771040461,0.01614713668823242,8,4
4.0,860.0,7520.0,1.0,2.0,10.0,6.3794260025024405,76.0,76.0,4.0,1.0,0.4322299957275392,7.447548151016235,4.16313249517221,11.610680646188445,5.947189092636108,8,4
4.0,860.0,7520.0,2.0,3.0,10.0,12.057168960571287,82.0,82.0,3.0,1.0,0.4264950752258301,13.129712104797363,4.6718144472982415,17.801526552095606,11.630669116973879,8,4
4.0,860.0,7520.0,3.0,4.0,10.0,18.289822101593018,76.0,76.0,3.0,1.0,0.4682719707489014,19.319499015808102,5.032812068072925,24.352311083881027,17.82154107093811,8,4
4.0,860.0,7520.0,4.0,5.0,10.0,24.852817058563232,82.0,82.0,2.0,1.0,0.4819610118865967,25.86789202690124,12.762371345953055,38.630263372854294,24.370846986770626,8,4
4.0,860.0,7520.0,5.0,6.0,10.0,39.109295129776,76.0,76.0,3.0,1.0,0.4663960933685303,40.142817974090576,6.155739750926283,46.298557725016856,38.642897129058845,8,4
4.0,860.0,7520.0,6.0,7.0,10.0,46.715167045593276,82.0,82.0,3.0,1.0,0.3994529247283936,47.815168142318726,5.2298308308308235,53.044998973149546,46.31570506095886,8,4
4.0,860.0,7520.0,7.0,8.0,10.0,53.501053094863884,76.0,76.0,2.0,1.0,0.4437258243560791,54.557229995727546,9.933895325852326,64.49112532157987,53.05735301971437,8,4
4.0,860.0,7520.0,8.0,9.0,10.0,64.95942306518555,76.0,76.0,0.0,1.0,0.453251838684082,66.00566506385803,7.757751411555257,73.7634164754133,64.50616312026978,8,4
4.0,860.0,7520.0,9.0,10.0,10.0,74.29333114624023,82.0,82.0,2.0,1.0,0.5132529735565186,75.27816510200499,5.355406764174443,80.63357186617944,73.78007197380067,8,4
4.0,860.0,7520.0,10.0,11.0,10.0,81.15623211860657,76.0,76.0,3.0,1.0,0.5112400054931642,82.14316201210022,8.80307006267405,90.94623207477427,80.64498496055603,8,4
4.0,860.0,7520.0,11.0,12.0,10.0,91.58776307106017,82.0,82.0,0.0,1.0,0.62727689743042,92.45920300483704,4.52767707791422,96.98688008275126,90.96047806739809,8,4
4.0,860.0,7520.0,12.0,13.0,10.0,97.42066407203673,76.0,76.0,3.0,1.0,0.41994094848632807,98.50156807899477,8.824353158959557,107.32592123795432,97.00071907043454,8,4
4.0,860.0,7520.0,13.0,14.0,10.0,107.91313409805296,76.0,76.0,0.0,1.0,0.5724167823791505,108.83927416801453,4.11283235284086,112.95210652085538,107.34071302413939,8,4
4.0,860.0,7520.0,14.0,15.0,10.0,113.3571140766144,82.0,76.0,0.0,0.0,0.3914709091186523,114.46542406082152,6.429655760375121,120.89507982119665,112.96563196182251,8,4
4.0,860.0,7520.0,15.0,16.0,10.0,121.39661502838133,82.0,82.0,1.0,1.0,0.4822189807891846,122.41437911987305,5.0027405082982686,127.41711962817132,120.91439294815063,8,4
4.0,860.0,7520.0,16.0,17.0,10.0,127.90141296386719,76.0,76.0,1.0,1.0,0.4716451168060303,128.9293670654297,7.270150898289498,136.1995179637192,127.4297661781311,8,4
4.0,860.0,7520.0,17.0,18.0,10.0,136.64126110076904,76.0,76.0,1.0,1.0,0.429736852645874,137.71149897575378,6.170452053997664,143.88195102975146,136.21152806282046,8,4
4.0,860.0,7520.0,18.0,19.0,10.0,144.38906311988828,76.0,76.0,2.0,1.0,0.494791030883789,145.39379906654355,4.511783514116269,149.90558258065982,143.8942639827728,8,4
4.0,860.0,7520.0,19.0,20.0,10.0,150.33882904052734,82.0,82.0,0.0,1.0,0.42135214805603033,151.41639494895935,5.545939253310418,156.96233420226977,149.91746997833252,8,4
4.0,860.0,7520.0,20.0,0.0,11.0,157.41470503807068,82.0,76.0,0.0,0.0,0.4394311904907226,158.47526907920835,15.449956644164452,173.9252257233728,156.9752380847931,8,4
4.0,860.0,7520.0,21.0,1.0,11.0,174.51407909393308,76.0,76.0,3.0,1.0,0.5746269226074218,175.4398410320282,6.522463835952648,181.96230486798083,173.93948602676392,8,4
4.0,860.0,7520.0,22.0,2.0,11.0,182.52872610092163,82.0,82.0,3.0,1.0,0.548935890197754,183.47943615913394,8.616069219070114,192.09550537820405,181.97978615760803,8,4
4.0,860.0,7520.0,23.0,3.0,11.0,192.59629106521606,82.0,82.0,3.0,1.0,0.4845881462097169,193.61056208610532,7.656202972216936,201.26676505832225,192.1117010116577,8,4
4.0,860.0,7520.0,24.0,4.0,11.0,201.78813409805298,82.0,82.0,4.0,1.0,0.5024569034576416,202.78595995903012,9.52294641352388,212.308906372554,201.28567004203802,8,4
4.0,860.0,7520.0,25.0,5.0,11.0,212.89776396751407,76.0,76.0,3.0,1.0,0.5638320446014404,213.82441616058347,5.220288880775707,219.04470504135918,212.33392596244806,8,4
4.0,860.0,7520.0,26.0,6.0,11.0,219.51135706901553,82.0,82.0,0.0,1.0,0.4531760215759277,220.55727815628046,4.953229617348951,225.5105077736294,219.05813598632807,8,4
4.0,860.0,7520.0,27.0,7.0,11.0,226.04125714302066,76.0,82.0,3.0,0.0,0.5179080963134765,227.02297306060794,5.331322833265511,232.35429589387346,225.52334403991696,8,4
4.0,860.0,7520.0,28.0,8.0,11.0,232.89696407318112,76.0,76.0,2.0,1.0,0.5244078636169432,233.87140417099002,5.270379132742509,239.14178330373252,232.37255096435547,8,4
4.0,860.0,7520.0,29.0,9.0,11.0,239.69803595542908,82.0,82.0,2.0,1.0,0.5437009334564209,240.65363812446597,10.443924363545129,251.0975624880111,239.154324054718,8,4
4.0,860.0,7520.0,30.0,10.0,11.0,251.7335319519043,82.0,82.0,3.0,1.0,0.6215479373931885,252.6114959716797,8.745884661228873,261.3573806329086,251.11197996139526,8,4
4.0,860.0,7520.0,31.0,11.0,11.0,261.95124197006226,82.0,82.0,1.0,1.0,0.5744881629943848,262.8767650127411,5.579987166229055,268.45675217897013,261.3767499923706,8,4
4.0,860.0,7520.0,32.0,12.0,11.0,268.9848170280456,76.0,76.0,2.0,1.0,0.5088579654693604,269.9764850139618,4.791368728018443,274.7678537419802,268.4759540557861,8,4
4.0,860.0,7520.0,33.0,13.0,11.0,275.2876980304718,76.0,76.0,0.0,1.0,0.5043869018554688,276.2819790840149,6.672761536117651,282.95474062013255,274.78330302238464,8,4
4.0,860.0,7520.0,34.0,14.0,11.0,283.5784101486206,76.0,76.0,2.0,1.0,0.6045598983764648,284.4734311103821,5.225889002624164,289.69932011300625,282.9738459587097,8,4
4.0,860.0,7520.0,35.0,15.0,11.0,290.27311205863947,76.0,76.0,2.0,1.0,0.5592398643493651,291.2139401435852,13.204189180866734,304.4181293244519,289.7138650417328,8,4
4.0,860.0,7520.0,36.0,16.0,11.0,305.0537600517273,76.0,76.0,2.0,1.0,0.616520881652832,305.9371521472931,4.680687515721549,310.61783966301465,304.43723201751703,8,4
4.0,860.0,7520.0,37.0,17.0,11.0,311.25441908836365,82.0,82.0,2.0,1.0,0.6180739402770996,312.13660407066345,5.109381834077296,317.24598590474073,310.63637614250183,8,4
4.0,860.0,7520.0,38.0,18.0,11.0,317.88744306564325,82.0,82.0,0.0,1.0,0.6276140213012695,318.75972414016724,6.9589298519648155,325.71865399213203,317.2598259449005,8,4
4.0,860.0,7520.0,39.0,19.0,11.0,326.26996898651123,82.0,82.0,3.0,1.0,0.536107063293457,327.23419713974005,11.070100987755769,338.3042981274958,325.73385715484613,8,4
4.0,860.0,7520.0,40.0,20.0,11.0,338.9056720733642,76.0,76.0,1.0,1.0,0.5821678638458252,339.82293295860285,12.210647429673815,352.0335803882767,338.3234980106354,8,4
4.0,860.0,7520.0,41.0,21.0,11.0,352.5990560054779,76.0,82.0,2.0,0.0,0.5524840354919432,353.54631304740906,14.524805586292336,368.0711186337014,352.0465660095215,8,4
4.0,860.0,7520.0,42.0,0.0,12.0,368.6116120815277,76.0,82.0,0.0,0.0,0.526270866394043,369.5856029987335,10.188798376566755,379.7744013753003,368.08533215522766,8,4
4.0,860.0,7520.0,43.0,1.0,12.0,380.39358115196234,76.0,76.0,3.0,1.0,0.6010830402374268,381.2924129962921,4.877301833602794,386.16971482989493,379.79249405860895,8,4
4.0,860.0,7520.0,44.0,2.0,12.0,386.81212115287775,82.0,76.0,0.0,0.0,0.6285760402679443,387.6825661659241,10.924794836263866,398.60736100218793,386.18353915214533,8,4
4.0,860.0,7520.0,46.0,4.0,12.0,405.19957208633423,82.0,82.0,0.0,1.0,0.469566822052002,406.2308299541473,5.734545416438283,411.96537537058555,404.73002099990845,8,4
4.0,860.0,7520.0,47.0,5.0,12.0,412.5501511096954,82.0,82.0,4.0,1.0,0.5709891319274902,413.47924017906183,13.984581258168433,427.46382143723025,411.97916007041925,8,4
4.0,860.0,7520.0,48.0,6.0,12.0,428.04462599754333,82.0,82.0,1.0,1.0,0.558912992477417,428.97719597816473,8.37069894461999,437.34789492278475,427.4857089519501,8,4
4.0,860.0,7520.0,49.0,7.0,12.0,437.852471113205,76.0,76.0,3.0,1.0,0.485044002532959,438.86747097969055,4.739893893891536,443.60736487358207,437.36741995811457,8,4
4.0,860.0,7520.0,50.0,8.0,12.0,444.14538002014154,82.0,82.0,0.0,1.0,0.5211892127990723,445.12466406822205,5.468525840600476,450.5931899088225,443.62418317794805,8,4
4.0,860.0,7520.0,51.0,9.0,12.0,451.1580669879913,82.0,82.0,0.0,1.0,0.5506670475006104,452.10627317428583,8.094901316230818,460.2011744905167,450.60739111900324,8,4
4.0,860.0,7520.0,52.0,10.0,12.0,460.7296390533447,82.0,76.0,0.0,0.0,0.5149581432342529,461.7139430046081,4.550442180557528,466.2643851851656,460.2146711349488,8,4
4.0,860.0,7520.0,53.0,11.0,12.0,466.72765207290655,82.0,82.0,2.0,1.0,0.447704792022705,467.7791919708252,11.07410785928773,478.8532998301129,466.2799391746521,8,4
4.0,860.0,7520.0,54.0,12.0,12.0,479.494954109192,76.0,76.0,2.0,1.0,0.6251668930053711,480.36902117729187,4.662298484741858,485.03131966203375,478.86977696418757,8,4
4.0,860.0,7520.0,55.0,13.0,12.0,485.53702998161316,82.0,82.0,0.0,1.0,0.4925320148468018,486.54453396797186,5.156487806434095,491.70102177440594,485.04449105262756,8,4
4.0,860.0,7520.0,56.0,14.0,12.0,492.23581194877625,82.0,76.0,1.0,0.0,0.5181159973144531,493.21774816513056,9.315301543238105,502.53304970836865,491.71769118309027,8,4
4.0,860.0,7520.0,57.0,15.0,12.0,503.1615641117096,76.0,82.0,0.0,0.0,0.6119840145111084,504.04903507232666,13.977108472637333,518.026143544964,502.5495710372924,8,4
4.0,860.0,7520.0,58.0,16.0,12.0,518.459911108017,76.0,76.0,1.0,1.0,0.4206008911132813,519.539209127426,9.011857611363409,528.5510667387895,518.0393121242522,8,4
4.0,860.0,7520.0,59.0,17.0,12.0,529.25151014328,76.0,82.0,0.0,0.0,0.680168867111206,530.0709180831909,5.4668067232654725,535.5377248064564,528.5713341236115,8,4
