reward_code,subj_id,condition,trial,epoch_trial,epoch_number,button_press,LR_solution,LR,reward,p_accuracy,rt,trial_end,iti_length,iti_end,stim_onset,session_n,run_n
4.0,860.0,7520.0,0.0,0.0,0.0,0.5810549259185791,76.0,76.0,1.0,1.0,0.5647029876708985,1.5078599452972414,4.332086550253891,5.839946495551132,0.01634597778320312,8,1
4.0,860.0,7520.0,1.0,1.0,0.0,6.346979856491089,76.0,76.0,4.0,1.0,0.4890401363372802,7.357424974441528,7.449730150753971,14.8071551251955,5.857937812805176,8,1
4.0,860.0,7520.0,2.0,2.0,0.0,15.285602807998655,82.0,82.0,4.0,1.0,0.4635429382324218,16.322942972183228,4.722953911642952,21.04589688382618,14.822054862976074,8,1
4.0,860.0,7520.0,3.0,3.0,0.0,21.54320597648621,76.0,76.0,2.0,1.0,0.4799258708953857,22.563176870346066,4.688266522598457,27.251443392944523,21.0632848739624,8,1
4.0,860.0,7520.0,4.0,4.0,0.0,27.812030792236328,82.0,82.0,3.0,1.0,0.5411090850830079,28.770599842071533,4.94681279613464,33.71741263820617,27.270911931991577,8,1
4.0,860.0,7520.0,5.0,5.0,0.0,34.16086483001709,76.0,76.0,2.0,1.0,0.4238319396972656,35.235657930374146,8.755492008072014,43.991149938446156,33.73702788352966,8,1
4.0,860.0,7520.0,6.0,6.0,0.0,44.465545892715454,76.0,76.0,4.0,1.0,0.4553279876708984,45.50968384742737,6.557228022093007,52.066911869520375,44.010214805603034,8,1
4.0,860.0,7520.0,7.0,7.0,0.0,52.67832684516906,82.0,82.0,0.0,1.0,0.5943899154663086,53.58394193649292,5.029645063029392,58.61358699952231,52.08392691612244,8,1
4.0,860.0,7520.0,8.0,8.0,0.0,59.1240029335022,82.0,82.0,2.0,1.0,0.4915938377380371,60.13268280029297,6.447704074663731,66.5803868749567,58.63240385055542,8,1
4.0,860.0,7520.0,9.0,9.0,0.0,67.14760494232178,76.0,76.0,3.0,1.0,0.5500268936157225,68.09876585006714,9.969465917374244,78.06823176744138,66.59757590293884,8,1
4.0,860.0,7520.0,10.0,10.0,0.0,78.61137580871582,76.0,76.0,1.0,1.0,0.53078293800354,79.57966685295105,4.560386981867151,84.1400538348182,78.08058881759644,8,1
4.0,860.0,7520.0,11.0,11.0,0.0,84.71319794654846,82.0,82.0,3.0,1.0,0.5595309734344481,85.65330886840819,4.09248471495597,89.74579358336416,84.15366196632385,8,1
4.0,860.0,7520.0,12.0,12.0,0.0,90.26776695251466,82.0,82.0,1.0,1.0,0.506568193435669,91.26110577583314,5.294950046126856,96.55605582196,89.76120281219481,8,1
4.0,860.0,7520.0,13.0,13.0,0.0,97.03154397010803,76.0,76.0,0.0,1.0,0.4633409976959229,98.06904888153075,4.92482589795728,102.99387477948802,96.56818985939023,8,1
4.0,860.0,7520.0,14.0,14.0,0.0,103.60263395309448,76.0,76.0,2.0,1.0,0.592879056930542,104.50954985618591,4.7217937430080354,109.23134359919395,103.00974988937378,8,1
4.0,860.0,7520.0,15.0,0.0,1.0,109.81332993507384,76.0,82.0,0.0,0.0,0.5633599758148192,110.75005078315735,8.258990582463305,119.00904136562065,109.24996495246887,8,1
4.0,860.0,7520.0,16.0,1.0,1.0,119.5359709262848,76.0,82.0,0.0,0.0,0.5120549201965331,120.52342081069946,4.4107839290541815,124.93420473975364,119.0239098072052,8,1
4.0,860.0,7520.0,17.0,2.0,1.0,125.48065900802611,82.0,82.0,4.0,1.0,0.5332450866699219,126.44735383987425,5.202265002827433,131.6496188427017,124.9474079608917,8,1
4.0,860.0,7520.0,18.0,3.0,1.0,132.24941182136536,82.0,82.0,6.0,1.0,0.5863018035888672,133.16355681419373,6.354054378247527,139.51761119244125,131.66310977935794,8,1
4.0,860.0,7520.0,19.0,4.0,1.0,140.1940658092499,82.0,82.0,3.0,1.0,0.6646180152893066,141.02797389030457,8.172301871766528,149.2002757620711,139.52944087982178,8,1
4.0,860.0,7520.0,20.0,5.0,1.0,149.77994298934937,82.0,82.0,2.0,1.0,0.5609581470489501,150.71876096725467,4.724036655729572,155.44279762298424,149.21897792816165,8,1
4.0,860.0,7520.0,21.0,6.0,1.0,156.06645393371582,76.0,76.0,0.0,1.0,0.60703706741333,156.9601159095764,4.819639573048848,161.77975548262523,155.45941281318662,8,1
4.0,860.0,7520.0,22.0,7.0,1.0,162.41344285011292,76.0,76.0,2.0,1.0,0.6212940216064453,163.29271888732907,8.093388065423998,171.38610695275307,161.79214000701904,8,1
4.0,860.0,7520.0,23.0,8.0,1.0,171.9762518405914,76.0,76.0,4.0,1.0,0.576848030090332,172.89956378936768,8.822971168819649,181.72253495818734,171.3993968963623,8,1
4.0,860.0,7520.0,24.0,9.0,1.0,182.3246879577637,82.0,82.0,4.0,1.0,0.5851140022277832,183.23948979377744,4.176802977168857,187.41629277094628,181.73956894874567,8,1
4.0,860.0,7520.0,25.0,10.0,1.0,188.09669589996338,76.0,76.0,3.0,1.0,0.6661269664764404,188.93011689186096,6.982028695105821,195.91214558696677,187.4305589199066,8,1
4.0,860.0,7520.0,26.0,11.0,1.0,196.47035479545596,76.0,76.0,5.0,1.0,0.5422568321228027,197.42886400222775,4.704686180581843,202.13355018280959,195.92808985710144,8,1
4.0,860.0,7520.0,27.0,12.0,1.0,202.64005780220032,76.0,76.0,3.0,1.0,0.4876399040222168,203.65332078933713,7.2063100825043165,210.85963087184143,202.15241885185242,8,1
4.0,860.0,7520.0,28.0,13.0,1.0,211.5625479221344,76.0,76.0,2.0,1.0,0.685600996017456,212.3757607936859,6.972264073036269,219.34802486672217,210.87694001197812,8,1
4.0,860.0,7520.0,29.0,14.0,1.0,219.8334369659424,76.0,76.0,0.0,1.0,0.4661450386047363,220.86701583862302,5.987725375374258,226.85474121399727,219.36728882789606,8,1
4.0,860.0,7520.0,30.0,15.0,1.0,227.36609697341922,76.0,76.0,2.0,1.0,0.4917080402374268,228.37346291542053,4.927811828395335,233.30127474381587,226.87437200546265,8,1
4.0,860.0,7520.0,31.0,16.0,1.0,233.7951488494873,76.0,76.0,3.0,1.0,0.4796957969665527,234.81496286392206,5.337967374648835,240.1529302385709,233.31544494628906,8,1
4.0,860.0,7520.0,32.0,17.0,1.0,240.74188280105594,82.0,82.0,3.0,1.0,0.5701420307159424,241.67184281349182,4.109367334384114,245.78121014787592,240.17173099517825,8,1
4.0,860.0,7520.0,33.0,0.0,2.0,246.27754282951358,82.0,76.0,4.0,0.0,0.4813179969787598,247.29592680931088,7.136643949956176,254.43257075926707,245.79622077941895,8,1
4.0,860.0,7520.0,34.0,1.0,2.0,254.9945878982544,82.0,76.0,0.0,0.0,0.549833059310913,255.94485282897952,4.28138969922707,260.22624252820657,254.444748878479,8,1
4.0,860.0,7520.0,35.0,2.0,2.0,260.8161349296569,76.0,82.0,0.0,0.0,0.5721909999847412,261.74431586265564,7.502113775253635,269.2464296379093,260.2439389228821,8,1
4.0,860.0,7520.0,36.0,3.0,2.0,269.83381891250605,76.0,76.0,0.0,1.0,0.5740668773651123,270.7592899799347,4.846660036922072,275.60595001685675,269.259742975235,8,1
4.0,860.0,7520.0,37.0,4.0,2.0,276.32935094833374,82.0,82.0,2.0,1.0,0.7124009132385253,277.1161389350891,4.063229754180704,281.17936868926984,275.6169438362121,8,1
4.0,860.0,7520.0,38.0,5.0,2.0,281.69418478012085,76.0,76.0,4.0,1.0,0.4954891204833985,282.69983696937567,4.3613504970930075,287.06118746646865,281.19868898391724,8,1
4.0,860.0,7520.0,39.0,6.0,2.0,287.6871209144592,82.0,82.0,3.0,1.0,0.6137139797210693,288.57324481010437,4.361135041527522,292.9343798516319,287.0733997821808,8,1
4.0,860.0,7520.0,40.0,7.0,2.0,293.57883000373835,82.0,82.0,4.0,1.0,0.6312141418457032,294.447468996048,5.305335428784304,299.7528044248323,292.9476118087768,8,1
4.0,860.0,7520.0,41.0,8.0,2.0,300.27254080772406,76.0,76.0,2.0,1.0,0.5006139278411865,301.27065682411194,5.371458870244731,306.6421156943567,299.7719249725342,8,1
4.0,860.0,7520.0,42.0,9.0,2.0,307.240229845047,76.0,76.0,0.0,1.0,0.577828884124756,308.1623330116272,12.619379329656793,320.781712341284,306.6623919010163,8,1
4.0,860.0,7520.0,43.0,10.0,2.0,321.2976880073548,76.0,82.0,0.0,0.0,0.5043511390686035,322.2934279441833,8.028183938661643,330.32161188284493,320.79332280159,8,1
4.0,860.0,7520.0,44.0,11.0,2.0,330.80940294265747,76.0,76.0,2.0,1.0,0.4760348796844481,331.83329486846924,7.597811190040439,339.43110605850967,330.33335995674133,8,1
4.0,860.0,7520.0,45.0,12.0,2.0,340.04624700546265,82.0,82.0,3.0,1.0,0.5965590476989746,340.9489569664001,4.8745195997127615,345.82347656611284,339.44968485832214,8,1
4.0,860.0,7520.0,46.0,13.0,2.0,346.34507989883423,76.0,76.0,3.0,1.0,0.505910873413086,347.33898186683655,10.397582341840714,357.73656420867724,345.83916187286377,8,1
4.0,860.0,7520.0,47.0,14.0,2.0,358.1987318992615,76.0,76.0,3.0,1.0,0.443876028060913,359.2547998428345,5.439152809481546,364.693952652316,357.7548489570617,8,1
4.0,860.0,7520.0,48.0,15.0,2.0,365.34638094902044,82.0,82.0,2.0,1.0,0.6346809864044188,366.2112038135529,5.182816657297437,371.39402047085036,364.7116878032684,8,1
4.0,860.0,7520.0,49.0,16.0,2.0,371.89410996437067,76.0,76.0,0.0,1.0,0.4829399585723877,372.9106528759002,5.026298010262257,377.9369508861625,371.4111659526825,8,1
4.0,860.0,7520.0,50.0,17.0,2.0,378.4897539615631,82.0,82.0,2.0,1.0,0.5382368564605713,379.45164394378656,6.011444774057245,385.4630887178438,377.9515149593353,8,1
4.0,860.0,7520.0,51.0,18.0,2.0,386.01165890693665,76.0,76.0,1.0,1.0,0.5281360149383545,386.9836249351501,4.561436287273652,391.5450612224237,385.48352098464966,8,1
4.0,860.0,7520.0,52.0,19.0,2.0,392.09826493263245,82.0,82.0,3.0,1.0,0.5405149459838867,393.05706882476807,10.728520493092631,403.7855893178607,391.55774188041687,8,1
4.0,860.0,7520.0,53.0,0.0,3.0,404.34924292564386,82.0,76.0,0.0,0.0,0.5514039993286132,405.29760885238653,5.8356745076006655,411.1332833599872,403.79783296585083,8,1
4.0,860.0,7520.0,54.0,1.0,3.0,411.71274995803833,76.0,76.0,2.0,1.0,0.5665998458862304,412.6468069553375,4.801243672342854,417.4480506276804,411.1461458206177,8,1
4.0,860.0,7520.0,55.0,2.0,3.0,418.0904538631439,82.0,82.0,2.0,1.0,0.6284620761871337,418.96225690841675,12.340226065051597,431.30248297346833,417.461984872818,8,1
4.0,860.0,7520.0,56.0,3.0,3.0,432.06909489631647,82.0,,0.0,,,432.81777691841125,5.973693435601228,438.79147035401246,431.3187048435211,8,1
4.0,860.0,7520.0,57.0,4.0,3.0,439.3398668766022,82.0,82.0,3.0,1.0,0.5311100482940673,440.30837798118597,6.0279834765457005,446.3363614577317,438.808748960495,8,1
4.0,860.0,7520.0,58.0,5.0,3.0,446.9809157848358,76.0,76.0,0.0,1.0,0.6313400268554688,447.84940099716187,4.989285312422918,452.8386863095848,446.3495709896089,8,1
4.0,860.0,7520.0,59.0,6.0,3.0,453.4218599796295,76.0,82.0,0.0,0.0,0.5576479434967041,454.36358380317694,4.8631010635280525,459.226684866705,452.86420798301697,8,1
