stim_onset, stim_duration, trial_type, rt, accuracy, epoch_length,epoch_trial, epoch_number
1.639986038208007812e-02	1.499129056930541992e+00	0.000000000000000000e+00	5.017077922821044922e-01	0.000000000000000000e+00	7.000000000000000000e+00	0.000000000000000000e+00	0.000000000000000000e+00
6.274167060852050781e+00	1.490934848785400391e+00	1.000000000000000000e+00	6.935939788818359375e-01	1.000000000000000000e+00	7.000000000000000000e+00	1.000000000000000000e+00	0.000000000000000000e+00
1.219007396697998047e+01	1.498601913452148438e+00	2.000000000000000000e+00	5.923969745635986328e-01	1.000000000000000000e+00	7.000000000000000000e+00	2.000000000000000000e+00	0.000000000000000000e+00
2.078019285202026367e+01	1.498746156692504883e+00	3.000000000000000000e+00	5.999119281768798828e-01	1.000000000000000000e+00	7.000000000000000000e+00	3.000000000000000000e+00	0.000000000000000000e+00
2.958675289154052734e+01	1.492264032363891602e+00	4.000000000000000000e+00	5.224001407623291016e-01	1.000000000000000000e+00	7.000000000000000000e+00	4.000000000000000000e+00	0.000000000000000000e+00
3.725215101242065430e+01	1.491180896759033203e+00	5.000000000000000000e+00	6.276209354400634766e-01	1.000000000000000000e+00	7.000000000000000000e+00	5.000000000000000000e+00	0.000000000000000000e+00
4.476807785034179688e+01	1.500112056732177734e+00	6.000000000000000000e+00	6.854610443115234375e-01	0.000000000000000000e+00	7.000000000000000000e+00	6.000000000000000000e+00	0.000000000000000000e+00
5.053435301780700684e+01	1.499346971511840820e+00	7.000000000000000000e+00	5.058908462524414062e-01	0.000000000000000000e+00	1.400000000000000000e+01	0.000000000000000000e+00	1.000000000000000000e+00
5.634091901779174805e+01	1.499138832092285156e+00	8.000000000000000000e+00	6.730298995971679688e-01	0.000000000000000000e+00	1.400000000000000000e+01	1.000000000000000000e+00	1.000000000000000000e+00
6.187370395660400391e+01	1.500129938125610352e+00	9.000000000000000000e+00	7.220289707183837891e-01	0.000000000000000000e+00	1.400000000000000000e+01	2.000000000000000000e+00	1.000000000000000000e+00
6.951464700698852539e+01	1.499767065048217773e+00	1.000000000000000000e+01	6.240139007568359375e-01	0.000000000000000000e+00	1.400000000000000000e+01	3.000000000000000000e+00	1.000000000000000000e+00
7.524680495262145996e+01	1.499047040939331055e+00	1.100000000000000000e+01	5.833439826965332031e-01	1.000000000000000000e+00	1.400000000000000000e+01	4.000000000000000000e+00	1.000000000000000000e+00
8.168747806549072266e+01	1.498872995376586914e+00	1.200000000000000000e+01	5.646269321441650391e-01	1.000000000000000000e+00	1.400000000000000000e+01	5.000000000000000000e+00	1.000000000000000000e+00
8.860274600982666016e+01	1.500452995300292969e+00	1.300000000000000000e+01	5.761048793792724609e-01	1.000000000000000000e+00	1.400000000000000000e+01	6.000000000000000000e+00	1.000000000000000000e+00
9.636088085174560547e+01	1.499421119689941406e+00	1.400000000000000000e+01	5.660541057586669922e-01	1.000000000000000000e+00	1.400000000000000000e+01	7.000000000000000000e+00	1.000000000000000000e+00
1.025838968753814697e+02	1.499855995178222656e+00	1.500000000000000000e+01	6.516649723052978516e-01	1.000000000000000000e+00	1.400000000000000000e+01	8.000000000000000000e+00	1.000000000000000000e+00
1.108080570697784424e+02	1.490602970123291016e+00	1.600000000000000000e+01	6.072309017181396484e-01	1.000000000000000000e+00	1.400000000000000000e+01	9.000000000000000000e+00	1.000000000000000000e+00
1.168731150627136230e+02	1.500177860260009766e+00	1.700000000000000000e+01	6.279239654541015625e-01	1.000000000000000000e+00	1.400000000000000000e+01	1.000000000000000000e+01	1.000000000000000000e+00
1.260814049243927002e+02	1.499328136444091797e+00	1.800000000000000000e+01	4.823110103607177734e-01	1.000000000000000000e+00	1.400000000000000000e+01	1.100000000000000000e+01	1.000000000000000000e+00
1.323302628993988037e+02	1.499459981918334961e+00	1.900000000000000000e+01	4.361560344696044922e-01	1.000000000000000000e+00	1.400000000000000000e+01	1.200000000000000000e+01	1.000000000000000000e+00
1.383861598968505859e+02	1.492659091949462891e+00	2.000000000000000000e+01	6.410241127014160156e-01	1.000000000000000000e+00	1.400000000000000000e+01	1.300000000000000000e+01	1.000000000000000000e+00
1.445365128517150879e+02	1.499982118606567383e+00	2.100000000000000000e+01	6.156401634216308594e-01	0.000000000000000000e+00	1.100000000000000000e+01	0.000000000000000000e+00	2.000000000000000000e+00
1.501692478656768799e+02	1.499017000198364258e+00	2.200000000000000000e+01	6.114940643310546875e-01	1.000000000000000000e+00	1.100000000000000000e+01	1.000000000000000000e+00	2.000000000000000000e+00
1.558352458477020264e+02	1.498397111892700195e+00	2.300000000000000000e+01	5.895290374755859375e-01	1.000000000000000000e+00	1.100000000000000000e+01	2.000000000000000000e+00	2.000000000000000000e+00
1.623672928810119629e+02	1.500051975250244141e+00	2.400000000000000000e+01	7.391011714935302734e-01	1.000000000000000000e+00	1.100000000000000000e+01	3.000000000000000000e+00	2.000000000000000000e+00
1.689997189044952393e+02	1.499464035034179688e+00	2.500000000000000000e+01	6.823978424072265625e-01	1.000000000000000000e+00	1.100000000000000000e+01	4.000000000000000000e+00	2.000000000000000000e+00
1.746158020496368408e+02	1.499107837677001953e+00	2.600000000000000000e+01	6.722500324249267578e-01	1.000000000000000000e+00	1.100000000000000000e+01	5.000000000000000000e+00	2.000000000000000000e+00
1.815559139251708984e+02	1.499760150909423828e+00	2.700000000000000000e+01	5.679669380187988281e-01	1.000000000000000000e+00	1.100000000000000000e+01	6.000000000000000000e+00	2.000000000000000000e+00
1.881545219421386719e+02	1.500401020050048828e+00	2.800000000000000000e+01	6.331000328063964844e-01	0.000000000000000000e+00	1.100000000000000000e+01	7.000000000000000000e+00	2.000000000000000000e+00
1.954038989543914795e+02	1.498915910720825195e+00	2.900000000000000000e+01	6.784629821777343750e-01	0.000000000000000000e+00	1.100000000000000000e+01	8.000000000000000000e+00	2.000000000000000000e+00
2.013695380687713623e+02	1.499084949493408203e+00	3.000000000000000000e+01	nan	nan	1.100000000000000000e+01	9.000000000000000000e+00	2.000000000000000000e+00
2.076107659339904785e+02	1.498762130737304688e+00	3.100000000000000000e+01	5.921850204467773438e-01	1.000000000000000000e+00	1.100000000000000000e+01	1.000000000000000000e+01	2.000000000000000000e+00
2.149925599098205566e+02	1.500313997268676758e+00	3.200000000000000000e+01	5.840508937835693359e-01	0.000000000000000000e+00	7.000000000000000000e+00	0.000000000000000000e+00	3.000000000000000000e+00
2.227249779701232910e+02	1.498836040496826172e+00	3.300000000000000000e+01	6.074969768524169922e-01	0.000000000000000000e+00	7.000000000000000000e+00	1.000000000000000000e+00	3.000000000000000000e+00
2.287488348484039307e+02	1.491494178771972656e+00	3.400000000000000000e+01	nan	nan	7.000000000000000000e+00	2.000000000000000000e+00	3.000000000000000000e+00
2.342980630397796631e+02	1.499992847442626953e+00	3.500000000000000000e+01	5.028989315032958984e-01	1.000000000000000000e+00	7.000000000000000000e+00	3.000000000000000000e+00	3.000000000000000000e+00
2.407140400409698486e+02	1.498843908309936523e+00	3.600000000000000000e+01	5.088069438934326172e-01	1.000000000000000000e+00	7.000000000000000000e+00	4.000000000000000000e+00	3.000000000000000000e+00
2.475049319267272949e+02	1.499469995498657227e+00	3.700000000000000000e+01	5.595450401306152344e-01	1.000000000000000000e+00	7.000000000000000000e+00	5.000000000000000000e+00	3.000000000000000000e+00
2.531201050281524658e+02	1.500156879425048828e+00	3.800000000000000000e+01	5.422601699829101562e-01	1.000000000000000000e+00	7.000000000000000000e+00	6.000000000000000000e+00	3.000000000000000000e+00
2.593606028556823730e+02	1.500146150588989258e+00	3.900000000000000000e+01	5.734820365905761719e-01	0.000000000000000000e+00	8.000000000000000000e+00	0.000000000000000000e+00	4.000000000000000000e+00
2.658019349575042725e+02	1.499001979827880859e+00	4.000000000000000000e+01	5.948600769042968750e-01	0.000000000000000000e+00	8.000000000000000000e+00	1.000000000000000000e+00	4.000000000000000000e+00
2.731927728652954102e+02	1.498667001724243164e+00	4.100000000000000000e+01	4.560651779174804688e-01	0.000000000000000000e+00	8.000000000000000000e+00	2.000000000000000000e+00	4.000000000000000000e+00
2.809419438838958740e+02	1.498939990997314453e+00	4.200000000000000000e+01	5.695161819458007812e-01	1.000000000000000000e+00	8.000000000000000000e+00	3.000000000000000000e+00	4.000000000000000000e+00
2.871361918449401855e+02	1.495388031005859375e+00	4.300000000000000000e+01	5.968720912933349609e-01	1.000000000000000000e+00	8.000000000000000000e+00	4.000000000000000000e+00	4.000000000000000000e+00
2.950311770439147949e+02	1.499162912368774414e+00	4.400000000000000000e+01	7.357099056243896484e-01	1.000000000000000000e+00	8.000000000000000000e+00	5.000000000000000000e+00	4.000000000000000000e+00
3.021626510620117188e+02	1.499238967895507812e+00	4.500000000000000000e+01	5.281119346618652344e-01	1.000000000000000000e+00	8.000000000000000000e+00	6.000000000000000000e+00	4.000000000000000000e+00
3.102206439971923828e+02	1.498884916305541992e+00	4.600000000000000000e+01	5.967671871185302734e-01	1.000000000000000000e+00	8.000000000000000000e+00	7.000000000000000000e+00	4.000000000000000000e+00
3.170349540710449219e+02	1.500154972076416016e+00	4.700000000000000000e+01	6.283318996429443359e-01	0.000000000000000000e+00	1.400000000000000000e+01	0.000000000000000000e+00	5.000000000000000000e+00
3.260760688781738281e+02	1.498947143554687500e+00	4.800000000000000000e+01	5.157101154327392578e-01	1.000000000000000000e+00	1.400000000000000000e+01	1.000000000000000000e+00	5.000000000000000000e+00
3.317667598724365234e+02	1.499164104461669922e+00	4.900000000000000000e+01	6.230649948120117188e-01	1.000000000000000000e+00	1.400000000000000000e+01	2.000000000000000000e+00	5.000000000000000000e+00
3.395406658649444580e+02	1.500101089477539062e+00	5.000000000000000000e+01	6.186339855194091797e-01	1.000000000000000000e+00	1.400000000000000000e+01	3.000000000000000000e+00	5.000000000000000000e+00
3.454903039932250977e+02	1.498760938644409180e+00	5.100000000000000000e+01	5.680119991302490234e-01	1.000000000000000000e+00	1.400000000000000000e+01	4.000000000000000000e+00	5.000000000000000000e+00
3.510639970302581787e+02	1.499497890472412109e+00	5.200000000000000000e+01	6.489980220794677734e-01	1.000000000000000000e+00	1.400000000000000000e+01	5.000000000000000000e+00	5.000000000000000000e+00
3.581620528697967529e+02	1.500149011611938477e+00	5.300000000000000000e+01	6.767001152038574219e-01	0.000000000000000000e+00	1.400000000000000000e+01	6.000000000000000000e+00	5.000000000000000000e+00
3.663530879020690918e+02	1.499186038970947266e+00	5.400000000000000000e+01	6.323010921478271484e-01	1.000000000000000000e+00	1.400000000000000000e+01	7.000000000000000000e+00	5.000000000000000000e+00
3.724022240638732910e+02	1.500001907348632812e+00	5.500000000000000000e+01	6.160268783569335938e-01	1.000000000000000000e+00	1.400000000000000000e+01	8.000000000000000000e+00	5.000000000000000000e+00
3.811351680755615234e+02	1.499045848846435547e+00	5.600000000000000000e+01	7.216689586639404297e-01	1.000000000000000000e+00	1.400000000000000000e+01	9.000000000000000000e+00	5.000000000000000000e+00
3.871082849502563477e+02	1.499974966049194336e+00	5.700000000000000000e+01	5.806388854980468750e-01	1.000000000000000000e+00	1.400000000000000000e+01	1.000000000000000000e+01	5.000000000000000000e+00
3.927331888675689697e+02	1.498980998992919922e+00	5.800000000000000000e+01	6.754338741302490234e-01	1.000000000000000000e+00	1.400000000000000000e+01	1.100000000000000000e+01	5.000000000000000000e+00
4.014483480453491211e+02	1.498832941055297852e+00	5.900000000000000000e+01	5.429360866546630859e-01	1.000000000000000000e+00	1.400000000000000000e+01	1.200000000000000000e+01	5.000000000000000000e+00
4.075054130554199219e+02	1.499135017395019531e+00	6.000000000000000000e+01	6.815400123596191406e-01	1.000000000000000000e+00	1.400000000000000000e+01	1.300000000000000000e+01	5.000000000000000000e+00
4.146215660572052002e+02	1.499159812927246094e+00	6.100000000000000000e+01	5.612568855285644531e-01	0.000000000000000000e+00	8.000000000000000000e+00	0.000000000000000000e+00	6.000000000000000000e+00
4.207369809150695801e+02	1.498893022537231445e+00	6.200000000000000000e+01	6.975998878479003906e-01	1.000000000000000000e+00	8.000000000000000000e+00	1.000000000000000000e+00	6.000000000000000000e+00
4.267364208698272705e+02	1.490547180175781250e+00	6.300000000000000000e+01	6.020991802215576172e-01	1.000000000000000000e+00	8.000000000000000000e+00	2.000000000000000000e+00	6.000000000000000000e+00
4.337183220386505127e+02	1.499293804168701172e+00	6.400000000000000000e+01	5.080218315124511719e-01	1.000000000000000000e+00	8.000000000000000000e+00	3.000000000000000000e+00	6.000000000000000000e+00
4.425839838981628418e+02	1.498790979385375977e+00	6.500000000000000000e+01	6.171360015869140625e-01	1.000000000000000000e+00	8.000000000000000000e+00	4.000000000000000000e+00	6.000000000000000000e+00
4.494077029228210449e+02	1.500154972076416016e+00	6.600000000000000000e+01	5.917639732360839844e-01	1.000000000000000000e+00	8.000000000000000000e+00	5.000000000000000000e+00	6.000000000000000000e+00
4.556242179870605469e+02	1.498969078063964844e+00	6.700000000000000000e+01	7.521679401397705078e-01	0.000000000000000000e+00	8.000000000000000000e+00	6.000000000000000000e+00	6.000000000000000000e+00
4.617967560291290283e+02	1.499562025070190430e+00	6.800000000000000000e+01	nan	nan	8.000000000000000000e+00	7.000000000000000000e+00	6.000000000000000000e+00
4.698959238529205322e+02	1.499992132186889648e+00	6.900000000000000000e+01	5.239369869232177734e-01	0.000000000000000000e+00	1.300000000000000000e+01	0.000000000000000000e+00	7.000000000000000000e+00
4.764785518646240234e+02	1.498902082443237305e+00	7.000000000000000000e+01	4.983820915222167969e-01	1.000000000000000000e+00	1.300000000000000000e+01	1.000000000000000000e+00	7.000000000000000000e+00
4.848111670017242432e+02	1.499804973602294922e+00	7.100000000000000000e+01	5.242819786071777344e-01	1.000000000000000000e+00	1.300000000000000000e+01	2.000000000000000000e+00	7.000000000000000000e+00
4.921767799854278564e+02	1.498395919799804688e+00	7.200000000000000000e+01	5.863409042358398438e-01	1.000000000000000000e+00	1.300000000000000000e+01	3.000000000000000000e+00	7.000000000000000000e+00
4.981332440376281738e+02	1.499727964401245117e+00	7.300000000000000000e+01	6.019480228424072266e-01	1.000000000000000000e+00	1.300000000000000000e+01	4.000000000000000000e+00	7.000000000000000000e+00
5.037662899494171143e+02	1.499963045120239258e+00	7.400000000000000000e+01	4.963510036468505859e-01	1.000000000000000000e+00	1.300000000000000000e+01	5.000000000000000000e+00	7.000000000000000000e+00
5.104406650066375732e+02	1.498893976211547852e+00	7.500000000000000000e+01	5.118968486785888672e-01	1.000000000000000000e+00	1.300000000000000000e+01	6.000000000000000000e+00	7.000000000000000000e+00
5.167140269279479980e+02	1.499441146850585938e+00	7.600000000000000000e+01	5.693440437316894531e-01	1.000000000000000000e+00	1.300000000000000000e+01	7.000000000000000000e+00	7.000000000000000000e+00
5.224884240627288818e+02	1.499059915542602539e+00	7.700000000000000000e+01	4.948298931121826172e-01	1.000000000000000000e+00	1.300000000000000000e+01	8.000000000000000000e+00	7.000000000000000000e+00
5.293283100128173828e+02	1.499878883361816406e+00	7.800000000000000000e+01	4.657139778137207031e-01	1.000000000000000000e+00	1.300000000000000000e+01	9.000000000000000000e+00	7.000000000000000000e+00
5.349445979595184326e+02	1.500119924545288086e+00	7.900000000000000000e+01	6.051700115203857422e-01	1.000000000000000000e+00	1.300000000000000000e+01	1.000000000000000000e+01	7.000000000000000000e+00
