reward_code,subj_id,condition,trial,epoch_trial,epoch_number,button_press,LR_solution,LR,reward,p_accuracy,rt,trial_end,iti_length,iti_end,stim_onset,session_n,run_n
5.0,790.0,7530.0,0.0,29.0,4.0,0.36166501045227045,76.0,76.0,2.0,1.0,0.3458049297332764,1.507997989654541,8.637534137599998,10.145532127254539,0.015856027603149414,9,3
5.0,790.0,7530.0,1.0,30.0,4.0,10.634160995483398,82.0,82.0,4.0,1.0,0.4694929122924805,11.664285898208618,6.394658274099998,18.058944172308617,10.16466498374939,9,3
5.0,790.0,7530.0,2.0,31.0,4.0,18.647825956344604,76.0,76.0,3.0,1.0,0.5676040649414062,19.57198691368103,6.5539072123,26.12589412598103,18.08021593093872,9,3
5.0,790.0,7530.0,3.0,32.0,4.0,26.720644950866696,82.0,82.0,3.0,1.0,0.5740578174591064,27.645961046218872,6.3175218564,33.96348290261887,26.146575927734368,9,3
5.0,790.0,7530.0,4.0,33.0,4.0,34.50936698913574,76.0,76.0,3.0,1.0,0.531376838684082,35.47752594947815,8.7780430033,44.25556895277815,33.97797703742981,9,3
5.0,790.0,7530.0,5.0,34.0,4.0,44.91547393798828,82.0,82.0,2.0,1.0,0.5217251777648925,45.88653898239136,6.2067479573,52.09328693969136,44.393744945526116,9,3
5.0,790.0,7530.0,6.0,35.0,4.0,52.46338200569153,82.0,76.0,0.0,0.0,0.35421109199523926,53.60977792739869,9.7943547361,63.404132663498686,52.10916304588317,9,3
5.0,790.0,7530.0,7.0,36.0,4.0,63.958812952041626,76.0,76.0,1.0,1.0,0.5341658592224121,64.9249210357666,6.2146412383,71.1395622740666,63.424639940261834,9,3
5.0,790.0,7530.0,8.0,37.0,4.0,71.71557307243347,82.0,82.0,0.0,1.0,0.5578320026397705,72.65699386596678,6.996471843800001,79.65346570976678,71.1577320098877,9,3
5.0,790.0,7530.0,9.0,0.0,5.0,80.2084150314331,82.0,82.0,0.0,1.0,0.5356879234313965,81.17296290397645,7.401030339199998,88.57399324317646,79.67271804809569,9,3
5.0,790.0,7530.0,10.0,1.0,5.0,89.05237197875975,76.0,82.0,4.0,0.0,0.4649488925933837,90.08795499801636,8.249659814899998,98.33761481291636,88.58741807937623,9,3
5.0,790.0,7530.0,11.0,2.0,5.0,98.9478449821472,76.0,82.0,0.0,0.0,0.5945780277252197,99.85320806503297,6.5996902655,106.45289833053297,98.35326385498048,9,3
5.0,790.0,7530.0,12.0,3.0,5.0,107.03574204444884,82.0,82.0,3.0,1.0,0.5667300224304198,107.96823096275328,9.3791490669,117.34738002965328,106.46900296211241,9,3
5.0,790.0,7530.0,13.0,4.0,5.0,117.90538597106931,82.0,82.0,0.0,1.0,0.5389688014984131,118.86736106872559,6.1614575639,125.02881863262559,117.36641192436218,9,3
5.0,790.0,7530.0,14.0,5.0,5.0,125.57799601554869,82.0,76.0,0.0,0.0,0.5286841392517089,126.54147005081175,6.3517212972,132.89319134801175,125.04930806159972,9,3
5.0,790.0,7530.0,15.0,6.0,5.0,133.44200396537778,76.0,76.0,2.0,1.0,0.5271458625793456,134.4066109657288,6.6296212335,141.03623219922878,132.9148540496826,9,3
5.0,790.0,7530.0,16.0,7.0,5.0,141.62772297859195,76.0,76.0,2.0,1.0,0.5640971660614013,142.555438041687,6.8236166026,149.379054644287,141.0636239051819,9,3
5.0,790.0,7530.0,17.0,8.0,5.0,149.93634605407715,76.0,76.0,3.0,1.0,0.5400769710540771,150.89594793319702,6.807756658400001,157.70370459159702,149.39626193046567,9,3
5.0,790.0,7530.0,18.0,9.0,5.0,158.2891910076141,76.0,76.0,3.0,1.0,0.5615401268005371,159.22043085098267,8.1061257643,167.32655661528267,157.72764492034912,9,3
5.0,790.0,7530.0,19.0,10.0,5.0,167.92880702018738,82.0,82.0,3.0,1.0,0.5857930183410645,168.84364390373227,6.198782992600001,175.04242689633227,167.34300494194028,9,3
5.0,790.0,7530.0,20.0,11.0,5.0,175.67577004432678,76.0,76.0,3.0,1.0,0.6163899898529052,176.5591480731964,7.023105083000001,183.5822531561964,175.05937290191653,9,3
5.0,790.0,7530.0,21.0,12.0,5.0,184.16644001007077,82.0,82.0,0.0,1.0,0.5585219860076904,185.0996940135956,8.360017595,193.4597116085956,183.60796499252322,9,3
5.0,790.0,7530.0,22.0,13.0,5.0,194.05108499526975,76.0,76.0,2.0,1.0,0.5782349109649658,194.9728319644928,6.5102862759,201.4831182403928,193.47279500961307,9,3
5.0,790.0,7530.0,23.0,14.0,5.0,202.07090497016904,82.0,76.0,0.0,0.0,0.5657808780670166,202.99758887290957,7.3765580097,210.37414688260958,201.5051200389862,9,3
5.0,790.0,7530.0,24.0,15.0,5.0,210.93760991096497,76.0,76.0,5.0,1.0,0.5496549606323242,211.8870420455933,8.316670306,220.20371235159328,210.38794708251956,9,3
5.0,790.0,7530.0,25.0,16.0,5.0,220.7392928600311,82.0,82.0,0.0,1.0,0.5201399326324463,221.7199380397797,7.501984415,229.2219224547797,220.2191450595856,9,3
5.0,790.0,7530.0,26.0,17.0,5.0,229.7391710281372,76.0,82.0,4.0,0.0,0.5047149658203124,230.73525285720828,8.4826235838,239.2178764410083,229.23444986343387,9,3
5.0,790.0,7530.0,27.0,18.0,5.0,239.75485706329343,76.0,82.0,0.0,0.0,0.521859884262085,240.7331030368805,7.186002986699999,247.9191060235805,239.23298597335813,9,3
5.0,790.0,7530.0,28.0,19.0,5.0,248.41535401344296,76.0,76.0,3.0,1.0,0.4839119911193848,249.4321019649506,7.028919837999999,256.4610218029506,247.9314329624176,9,3
5.0,790.0,7530.0,29.0,20.0,5.0,257.02638387680054,76.0,76.0,3.0,1.0,0.5446929931640625,257.98099398612976,7.6808590475,265.66185303362977,256.4816870689392,9,3
5.0,790.0,7530.0,30.0,21.0,5.0,266.20600390434265,76.0,76.0,0.0,1.0,0.5268268585205078,267.17958807945246,6.737836669199999,273.9174247486525,265.6791670322419,9,3
5.0,790.0,7530.0,31.0,22.0,5.0,274.48402404785156,82.0,76.0,0.0,0.0,0.5385708808898925,275.4364428520202,6.8253593412,282.2618021932202,273.9454479217529,9,3
5.0,790.0,7530.0,32.0,0.0,6.0,282.7925670146942,76.0,82.0,0.0,0.0,0.5145168304443359,283.777498960495,6.6602143789,290.437713339395,282.27804708480835,9,3
5.0,790.0,7530.0,33.0,1.0,6.0,290.9633569717407,82.0,76.0,0.0,0.0,0.5042741298675537,291.9515800476074,6.8302877675,298.78186781510743,290.45907998085016,9,3
5.0,790.0,7530.0,34.0,2.0,6.0,299.39409303665155,76.0,82.0,0.0,0.0,0.585827112197876,300.30016088485723,6.8306028319,307.13076371675726,298.80826091766363,9,3
5.0,790.0,7530.0,35.0,3.0,6.0,307.6748459339142,76.0,76.0,3.0,1.0,0.5177760124206543,308.64921689033514,8.342266416399998,316.9914833067351,307.1570630073548,9,3
5.0,790.0,7530.0,36.0,4.0,6.0,317.53659200668335,76.0,76.0,2.0,1.0,0.5304889678955078,318.505616903305,6.1189629448,324.624579848105,317.00609397888184,9,3
5.0,790.0,7530.0,37.0,5.0,6.0,325.14539194107056,76.0,76.0,3.0,1.0,0.5076301097869873,326.1375269889832,7.833443911,333.97097089998323,324.637757062912,9,3
5.0,790.0,7530.0,38.0,6.0,6.0,334.535178899765,76.0,76.0,0.0,1.0,0.5491969585418701,335.48644495010376,8.2252081357,343.71165308580373,333.98597788810724,9,3
5.0,790.0,7530.0,39.0,7.0,6.0,344.3160209655762,82.0,76.0,3.0,0.0,0.5810348987579346,345.22690892219543,6.142144360600001,351.36905328279545,343.7349820137024,9,3
5.0,790.0,7530.0,40.0,8.0,6.0,351.9995889663696,82.0,76.0,0.0,0.0,0.6066799163818359,352.88416194915766,6.6360624811,359.52022443025766,351.39290499687195,9,3
5.0,790.0,7530.0,41.0,9.0,6.0,360.07848405838007,76.0,76.0,3.0,1.0,0.5452308654785156,361.0329120159149,9.319084644400002,370.3519966603149,359.5332450866699,9,3
5.0,790.0,7530.0,42.0,10.0,6.0,370.9151129722595,82.0,82.0,4.0,1.0,0.5498731136322021,371.8652849197388,6.5511363568,378.4164212765388,370.3652310371399,9,3
5.0,790.0,7530.0,43.0,11.0,6.0,379.0238819122314,82.0,76.0,0.0,0.0,0.5933971405029297,379.9303059577942,7.2176845819,387.1479905396942,378.4304769039154,9,3
5.0,790.0,7530.0,44.0,12.0,6.0,387.705570936203,76.0,76.0,1.0,1.0,0.5427348613739014,388.662281036377,9.2971715128,397.959452549177,387.1628289222717,9,3
5.0,790.0,7530.0,45.0,13.0,6.0,398.4811730384826,82.0,82.0,2.0,1.0,0.5037748813629152,399.4772808551788,7.9662051958,407.4434860509788,397.97739386558527,9,3
5.0,790.0,7530.0,46.0,14.0,6.0,408.0009129047393,76.0,82.0,0.0,0.0,0.5411961078643799,408.95920085906977,6.6455411483,415.6047420073698,407.45970892906183,9,3
5.0,790.0,7530.0,47.0,15.0,6.0,416.18677091598516,82.0,82.0,2.0,1.0,0.5619838237762451,417.1256220340729,6.1973386952,423.3229607292729,415.6247799396515,9,3
5.0,790.0,7530.0,48.0,16.0,6.0,423.8447959423065,76.0,76.0,3.0,1.0,0.5042300224304198,424.8409569263457,9.1766548792,434.0176118055457,423.3405539989472,9,3
5.0,790.0,7530.0,49.0,17.0,6.0,434.5471770763397,82.0,76.0,0.0,0.0,0.5078930854797363,435.53070902824396,6.2736752093,441.80438423754396,434.0392770767212,9,3
5.0,790.0,7530.0,50.0,18.0,6.0,442.41795587539673,76.0,76.0,0.0,1.0,0.5961391925811768,443.3208198547363,6.253368926,449.57418878073634,441.82181096076965,9,3
5.0,790.0,7530.0,51.0,19.0,6.0,450.2447109222412,76.0,76.0,4.0,1.0,0.6571969985961914,451.087364912033,9.6231719091,460.710536821133,449.5875079631805,9,3
5.0,790.0,7530.0,52.0,20.0,6.0,461.2525200843811,82.0,82.0,1.0,1.0,0.5170938968658447,462.2270538806915,7.5219071665,469.74896104719153,460.73543691635126,9,3
5.0,790.0,7530.0,53.0,21.0,6.0,470.2252168655396,76.0,76.0,2.0,1.0,0.4578430652618408,471.26796603202814,7.115323055599999,478.38328908762816,469.7673640251161,9,3
5.0,790.0,7530.0,54.0,22.0,6.0,478.9468519687653,76.0,82.0,0.0,0.0,0.5473358631134033,479.8994920253753,7.9748496299,487.8743416552753,478.39951300621027,9,3
5.0,790.0,7530.0,55.0,23.0,6.0,488.5137119293213,82.0,82.0,4.0,1.0,0.6149139404296876,489.39035105705267,6.763984022100001,496.15433507915264,487.8987920284272,9,3
5.0,790.0,7530.0,56.0,24.0,6.0,496.70437502861023,82.0,82.0,4.0,1.0,0.5233020782470703,497.6728010177612,8.796708646499999,506.4695096642612,496.18106508255005,9,3
5.0,790.0,7530.0,57.0,25.0,6.0,507.089362859726,76.0,76.0,0.0,1.0,0.5936119556427002,507.98725891113276,8.335805110399999,516.3230640215328,506.4957439899444,9,3
5.0,790.0,7530.0,58.0,26.0,6.0,516.8566629886627,76.0,82.0,2.0,0.0,0.5126779079437256,517.8363170623779,6.5329013534000016,524.3692184157779,516.3439509868622,9,3
5.0,790.0,7530.0,59.0,27.0,6.0,524.9275820255281,76.0,82.0,2.0,0.0,0.5347518920898438,525.8847210407257,7.718719605,533.6034406457258,524.3928248882294,9,3
