reward_code,subj_id,condition,trial,epoch_trial,epoch_number,button_press,LR_solution,LR,reward,p_accuracy,rt,trial_end,iti_length,iti_end,stim_onset,session_n,run_n
5.0,811.0,7530.0,0.0,15.0,5.0,0.6919698715209961,76.0,76.0,1.0,1.0,0.6757659912109375,1.505352973937988,6.830602832,8.335955805937989,0.016193866729736325,2,3
5.0,811.0,7530.0,1.0,16.0,5.0,8.956748008728027,82.0,82.0,4.0,1.0,0.6077361106872559,9.848041057586668,6.510286276,16.35832733358667,8.349005937576294,2,3
5.0,811.0,7530.0,2.0,17.0,5.0,16.93767285346985,76.0,82.0,0.0,0.0,0.5647900104522705,17.872889041900635,9.176654879,27.049543920900636,16.37287998199463,2,3
5.0,811.0,7530.0,3.0,18.0,5.0,27.737273931503292,82.0,82.0,2.0,1.0,0.6750328540802002,28.563225030899048,9.379149067,37.94237409789905,27.062232971191406,2,3
5.0,811.0,7530.0,4.0,19.0,5.0,38.638970851898186,82.0,82.0,1.0,1.0,0.6775641441345215,39.46101188659668,8.249659814999998,47.71067170159668,37.961400985717766,2,3
5.0,811.0,7530.0,5.0,20.0,5.0,48.36184906959533,76.0,76.0,3.0,1.0,0.6350369453430176,49.22602701187134,8.106125763999998,57.332152775871336,47.72680902481079,2,3
5.0,811.0,7530.0,6.0,21.0,5.0,57.97625398635864,82.0,82.0,4.0,1.0,0.626296043395996,58.84984397888184,6.351721296999999,65.20156527588185,57.34995198249817,2,3
5.0,811.0,7530.0,7.0,22.0,5.0,65.8712260723114,82.0,82.0,0.0,1.0,0.6559159755706788,66.71160006523132,6.394658274,73.10625833923132,65.21531701087952,2,3
5.0,811.0,7530.0,8.0,23.0,5.0,73.71096801757811,76.0,76.0,3.0,1.0,0.5881450176239013,74.6233220100403,6.118962944999999,80.74228495504029,73.12281584739685,2,3
5.0,811.0,7530.0,9.0,0.0,6.0,81.3158369064331,76.0,82.0,0.0,0.0,0.5612690448760986,82.25470495223999,8.225208136,90.47991308823998,80.75454187393188,2,3
5.0,811.0,7530.0,10.0,1.0,6.0,91.18248486518861,76.0,82.0,0.0,0.0,0.6878671646118164,91.9921338558197,6.317521856,98.3096557118197,90.49461102485657,2,3
5.0,811.0,7530.0,11.0,2.0,6.0,98.99853801727296,82.0,82.0,2.0,1.0,0.6709718704223633,99.8243248462677,7.028919837999999,106.8532446842677,98.32755899429318,2,3
5.0,811.0,7530.0,12.0,3.0,6.0,107.32816791534425,76.0,76.0,2.0,1.0,0.459827184677124,108.36815094947816,7.501984415,115.87013536447816,106.868332862854,2,3
5.0,811.0,7530.0,13.0,4.0,6.0,116.48876285552979,82.0,82.0,3.0,1.0,0.6055328845977783,117.38307690620421,8.342266416000001,125.72534332220421,115.88322997093199,2,3
5.0,811.0,7530.0,14.0,5.0,6.0,126.28767704963684,76.0,76.0,3.0,1.0,0.5477471351623535,127.23760604858398,6.807756658,134.04536270658397,125.73991894721983,2,3
5.0,811.0,7530.0,15.0,6.0,6.0,134.69442200660706,82.0,82.0,0.0,1.0,0.6297469139099121,135.56341195106506,8.796708647,144.36012059806507,134.06466794013974,2,3
5.0,811.0,7530.0,16.0,7.0,6.0,144.89119601249692,82.0,82.0,2.0,1.0,0.5116069316864013,145.87942790985107,6.660214379000001,152.53964228885107,144.37958192825315,2,3
5.0,811.0,7530.0,17.0,8.0,6.0,153.1049108505249,76.0,76.0,2.0,1.0,0.5513749122619629,154.04927802085876,9.794354736,163.84363275685877,152.55352997779846,2,3
5.0,811.0,7530.0,18.0,9.0,6.0,164.38846898078918,76.0,76.0,3.0,1.0,0.5286641120910645,165.35944199562073,6.830287768,172.18972976362073,163.85980391502383,2,3
5.0,811.0,7530.0,19.0,10.0,6.0,172.7444770336151,76.0,76.0,2.0,1.0,0.5355379581451416,173.70886588096616,6.629621234,180.33848711496617,172.20893192291263,2,3
5.0,811.0,7530.0,20.0,11.0,6.0,180.88103103637692,76.0,76.0,3.0,1.0,0.523953914642334,181.8575310707092,6.737836668999999,188.5953677397092,180.35706901550287,2,3
5.0,811.0,7530.0,21.0,12.0,6.0,189.06687688827517,76.0,76.0,2.0,1.0,0.4516530036926269,190.11145496368408,6.214641238,196.3260962016841,188.6152160167694,2,3
5.0,811.0,7530.0,22.0,13.0,6.0,196.89972686767578,82.0,82.0,3.0,1.0,0.5614821910858154,197.83794307708737,6.253368926,204.09131200308738,196.33823990821838,2,3
5.0,811.0,7530.0,23.0,14.0,6.0,204.76222801208496,82.0,82.0,4.0,1.0,0.6576330661773682,205.6043789386749,7.115323056,212.7197019946749,204.1046009063721,2,3
5.0,811.0,7530.0,24.0,15.0,6.0,213.32809996604922,76.0,76.0,2.0,1.0,0.5921430587768554,214.2360689640045,7.217684582,221.4537535460045,212.7359118461609,2,3
5.0,811.0,7530.0,25.0,16.0,6.0,222.04979491233823,82.0,82.0,2.0,1.0,0.5811748504638671,222.96795797348025,6.197338695000001,229.16529666848027,221.46861195564273,2,3
5.0,811.0,7530.0,26.0,17.0,6.0,229.7898449897766,82.0,82.0,0.0,1.0,0.6054470539093018,230.68296194076538,7.521907167,238.20486910776538,229.18439197540286,2,3
5.0,811.0,7530.0,27.0,18.0,6.0,238.9495320320129,76.0,76.0,2.0,1.0,0.7257599830627443,239.72180795669556,7.186002987000001,246.90781094369555,238.22376298904416,2,3
5.0,811.0,7530.0,28.0,19.0,6.0,247.5742268562317,82.0,82.0,3.0,1.0,0.6509830951690674,248.41987085342407,7.833443911,256.2533147644241,246.92323994636533,2,3
5.0,811.0,7530.0,29.0,20.0,6.0,256.8010239601136,76.0,76.0,0.0,1.0,0.5293571949005126,257.7688059806824,6.551136357000002,264.3199423376824,256.2716820240021,2,3
5.0,811.0,7530.0,30.0,21.0,6.0,264.98866391181946,82.0,82.0,4.0,1.0,0.651634931564331,265.83386206626886,6.8253593409999995,272.6592214072689,264.33702087402344,2,3
5.0,811.0,7530.0,31.0,22.0,6.0,273.3355729579925,82.0,82.0,3.0,1.0,0.657390832901001,274.1777698993683,7.966205196,282.14397509536826,272.6781749725342,2,3
5.0,811.0,7530.0,32.0,23.0,6.0,282.83511090278625,76.0,76.0,0.0,1.0,0.6753637790679932,283.65988302230835,8.316670306,291.97655332830834,282.1597418785095,2,3
5.0,811.0,7530.0,33.0,24.0,6.0,292.584018945694,82.0,82.0,2.0,1.0,0.5919508934020996,293.49195289611816,6.5996902660000005,300.09164316211815,291.99206185340876,2,3
5.0,811.0,7530.0,34.0,25.0,6.0,300.7450630664825,82.0,82.0,2.0,1.0,0.6380550861358641,301.6064338684082,6.1421443610000015,307.7485782294082,300.1070020198822,2,3
5.0,811.0,7530.0,35.0,26.0,6.0,308.3687169551849,76.0,76.0,3.0,1.0,0.6039569377899169,309.26151990890503,6.996471843999999,316.257991752905,307.7647459506988,2,3
5.0,811.0,7530.0,36.0,27.0,6.0,317.01428008079523,82.0,82.0,2.0,1.0,0.7430260181427003,317.77168107032776,7.37655801,325.14823908032776,316.27124905586237,2,3
5.0,811.0,7530.0,37.0,28.0,6.0,325.7702538967132,76.0,76.0,3.0,1.0,0.607501983642578,326.6587748527527,6.198782992999998,332.8575578457527,325.16275000572205,2,3
5.0,811.0,7530.0,38.0,29.0,6.0,333.4990329742432,76.0,76.0,1.0,1.0,0.6220068931579589,334.3742308616638,6.8236166030000005,341.1978474646638,332.8770198822021,2,3
5.0,811.0,7530.0,40.0,1.0,7.0,350.3715260028839,82.0,76.0,0.0,0.0,0.6130049228668212,351.2558369636536,7.974849629999999,359.2306865936536,349.7585160732269,2,3
5.0,811.0,7530.0,41.0,2.0,7.0,359.80430793762207,76.0,82.0,0.0,0.0,0.5558619499206543,360.74839496612555,8.33580511,369.08420007612557,359.24843788146967,2,3
5.0,811.0,7530.0,42.0,3.0,7.0,369.56378698349,76.0,76.0,0.0,1.0,0.4668049812316895,370.5970010757447,6.763984022000001,377.3609850977447,369.09697484970087,2,3
5.0,811.0,7530.0,43.0,4.0,7.0,377.87189698219294,76.0,76.0,3.0,1.0,0.4926760196685791,378.8794720172882,8.482623584,387.3620956012882,377.37921690940857,2,3
5.0,811.0,7530.0,44.0,5.0,7.0,388.05222105979914,76.0,82.0,1.0,0.0,0.67471981048584,388.87817096710205,7.718719605,396.59689057210204,387.37752985954296,2,3
5.0,811.0,7530.0,45.0,6.0,7.0,397.1402308940888,82.0,82.0,0.0,1.0,0.5308680534362793,398.109689950943,8.637534137999998,406.74722408894297,396.6093580722809,2,3
5.0,811.0,7530.0,46.0,7.0,7.0,407.23399400711054,82.0,76.0,0.0,0.0,0.4666619300842285,408.2645790576935,7.401030339,415.66560939669347,406.76732707023615,2,3
5.0,811.0,7530.0,47.0,8.0,7.0,416.1525728702545,82.0,82.0,2.0,1.0,0.4709088802337647,417.18046593666077,9.623171909,426.8036378456608,415.6816589832306,2,3
5.0,811.0,7530.0,48.0,9.0,7.0,427.4193389415741,82.0,82.0,0.0,1.0,0.5968339443206787,428.3227000236511,6.273675208999999,434.5963752326511,426.82249808311457,2,3
5.0,811.0,7530.0,50.0,11.0,7.0,444.94575786590576,76.0,82.0,0.0,0.0,0.4588630199432372,445.9857380390167,6.532901352999999,452.5186393920167,444.4868869781494,2,3
5.0,811.0,7530.0,51.0,12.0,7.0,452.99840402603144,76.0,76.0,2.0,1.0,0.463284969329834,454.0351049900055,6.161457564,460.1965625540055,452.5351140499114,2,3
5.0,811.0,7530.0,52.0,13.0,7.0,460.72637891769403,76.0,76.0,1.0,1.0,0.5171258449554444,461.70660591125494,7.6808590479999985,469.38746495925494,460.20924496650696,2,3
5.0,811.0,7530.0,53.0,14.0,7.0,469.8932130336762,76.0,76.0,1.0,1.0,0.4851009845733642,470.90613389015203,8.778043002999999,479.684176893152,469.4081079959868,2,3
5.0,811.0,7530.0,54.0,15.0,7.0,480.2828688621521,76.0,76.0,2.0,1.0,0.5849001407623291,481.19732904434204,6.6360624810000015,487.83339152534205,479.69796299934393,2,3
5.0,811.0,7530.0,55.0,16.0,7.0,488.34265685081476,76.0,76.0,0.0,1.0,0.4961929321289064,489.3474910259247,9.319084644,498.66657566992467,487.84645891189575,2,3
5.0,811.0,7530.0,56.0,17.0,7.0,499.2483508586884,76.0,76.0,0.0,1.0,0.5614941120147705,500.18507695198053,6.553907212,506.73898416398055,498.6868529319763,2,3
5.0,811.0,7530.0,57.0,18.0,7.0,507.2191648483276,82.0,76.0,3.0,0.0,0.4665439128875733,508.2505528926849,6.206747956999999,514.4573008496849,506.75261807441717,2,3
5.0,811.0,7530.0,58.0,19.0,7.0,514.9629158973694,82.0,76.0,0.0,0.0,0.4867160320281983,515.9757089614867,9.297171513,525.2728804744867,514.4761939048767,2,3
5.0,811.0,7530.0,59.0,20.0,7.0,525.9636149406432,76.0,82.0,0.0,0.0,0.671694040298462,526.7906939983368,6.645541148,533.4362351463368,525.2919149398804,2,3
