reward_code,subj_id,condition,trial,epoch_trial,epoch_number,button_press,LR_solution,LR,reward,p_accuracy,rt,trial_end,iti_length,iti_end,stim_onset,session_n,run_n
5.0,811.0,7530.0,0.0,4.0,10.0,0.36035513877868647,76.0,76.0,4.0,1.0,0.34413385391235357,1.5086791515350337,6.830602832,8.339281983535034,0.01621699333190918,2,5
5.0,811.0,7530.0,1.0,5.0,10.0,8.941856145858765,82.0,82.0,0.0,1.0,0.5848829746246337,9.857496976852415,6.510286276,16.367783252852416,8.356965065002443,2,5
5.0,811.0,7530.0,2.0,6.0,10.0,17.046581029891968,76.0,76.0,1.0,1.0,0.6661670207977295,17.880690097808834,9.176654879,27.057344976808835,16.38041114807129,2,5
5.0,811.0,7530.0,3.0,7.0,10.0,27.623444080352783,76.0,76.0,1.0,1.0,0.552211046218872,28.570580005645752,9.379149067,37.94972907264575,27.071223020553585,2,5
5.0,811.0,7530.0,4.0,8.0,10.0,38.543365001678474,82.0,82.0,4.0,1.0,0.574002981185913,39.46934103965759,8.249659814999998,47.719000854657594,37.96935606002808,2,5
5.0,811.0,7530.0,5.0,9.0,10.0,48.28795695304871,82.0,82.0,2.0,1.0,0.5527160167694092,49.234286069869995,8.106125763999998,57.34041183386999,47.735234022140496,2,5
5.0,811.0,7530.0,6.0,10.0,10.0,57.939839124679565,82.0,76.0,4.0,0.0,0.5819039344787598,58.85854816436768,6.351721296999999,65.21026946136769,57.3579740524292,2,5
5.0,811.0,7530.0,7.0,11.0,10.0,65.74679803848267,76.0,76.0,3.0,1.0,0.5230140686035156,66.7238609790802,6.394658274,73.1185192530802,65.2237811088562,2,5
5.0,811.0,7530.0,8.0,12.0,10.0,73.7152690887451,82.0,82.0,3.0,1.0,0.584069013595581,74.63102912902832,6.118962944999999,80.74999207402831,73.13119602203369,2,5
5.0,811.0,7530.0,9.0,13.0,10.0,81.35699796676634,76.0,76.0,0.0,1.0,0.5936470031738281,82.26259708404541,8.225208136,90.4878052200454,80.76334714889526,2,5
5.0,811.0,7530.0,10.0,14.0,10.0,91.08683013916017,76.0,76.0,3.0,1.0,0.5827491283416748,92.00327610969543,6.317521856,98.32079796569543,90.50407314300536,2,5
5.0,811.0,7530.0,11.0,15.0,10.0,98.97270202636719,82.0,82.0,2.0,1.0,0.6367831230163574,99.83663606643675,7.028919837999999,106.86555590443675,98.33591508865355,2,5
5.0,811.0,7530.0,12.0,16.0,10.0,107.41067600250243,76.0,76.0,2.0,1.0,0.5341620445251465,108.37616205215454,7.501984415,115.87814646715454,106.87652707099915,2,5
5.0,811.0,7530.0,13.0,17.0,10.0,116.47925901412964,82.0,82.0,2.0,1.0,0.5874679088592529,117.3919689655304,8.342266416000001,125.7342353815304,115.89175915718077,2,5
5.0,811.0,7530.0,14.0,18.0,10.0,126.3112859725952,76.0,76.0,4.0,1.0,0.5631179809570312,127.24826502799988,6.807756658,134.05602168599987,125.74816417694093,2,5
5.0,811.0,7530.0,15.0,19.0,10.0,134.64292407035828,82.0,82.0,0.0,1.0,0.5704460144042969,135.57310295104978,8.796708647,144.36981159804978,134.07247114181519,2,5
5.0,811.0,7530.0,16.0,20.0,10.0,144.9866499900818,76.0,76.0,0.0,1.0,0.5989599227905275,145.8876371383667,6.660214379000001,152.5478515173667,144.38768315315247,2,5
5.0,811.0,7530.0,17.0,21.0,10.0,153.1394431591034,76.0,76.0,2.0,1.0,0.5781528949737549,154.06174111366272,9.794354736,163.85609584966272,152.56128716468814,2,5
5.0,811.0,7530.0,18.0,22.0,10.0,164.46526503562927,76.0,76.0,0.0,1.0,0.5958690643310546,165.36919617652893,6.830287768,172.19948394452894,163.86939215660095,2,5
5.0,811.0,7530.0,19.0,23.0,10.0,172.88197207450867,82.0,76.0,0.0,0.0,0.6644830703735352,173.71831607818604,6.629621234,180.34793731218605,172.2174820899963,2,5
5.0,811.0,7530.0,20.0,24.0,10.0,181.0066790580749,76.0,76.0,3.0,1.0,0.6402759552001953,181.86622714996338,6.737836668999999,188.60406381896337,180.36639499664304,2,5
5.0,811.0,7530.0,21.0,0.0,11.0,189.26635599136353,76.0,76.0,3.0,1.0,0.6429929733276367,190.12438511848447,6.214641238,196.33902635648448,188.62335705757138,2,5
5.0,811.0,7530.0,22.0,1.0,11.0,196.88324809074402,76.0,82.0,0.0,0.0,0.5273308753967284,197.85592699050906,6.253368926,204.10929591650907,196.35590815544128,2,5
5.0,811.0,7530.0,23.0,2.0,11.0,204.76397705078122,76.0,82.0,0.0,0.0,0.6338241100311279,205.62984013557437,7.115323056,212.74516319157436,204.13014602661124,2,5
5.0,811.0,7530.0,24.0,3.0,11.0,213.31992506980896,76.0,76.0,3.0,1.0,0.5579371452331542,214.2624840736389,7.217684582,221.4801686556389,212.76198315620422,2,5
5.0,811.0,7530.0,25.0,4.0,11.0,222.0716280937195,76.0,76.0,0.0,1.0,0.5777277946472168,222.9944360256195,6.197338695000001,229.19177472061952,221.49389696121213,2,5
5.0,811.0,7530.0,26.0,5.0,11.0,229.82344794273376,82.0,82.0,2.0,1.0,0.6137769222259521,230.70940709114078,7.521907167,238.23131425814077,229.2096650600433,2,5
5.0,811.0,7530.0,27.0,6.0,11.0,238.83921909332275,82.0,82.0,1.0,1.0,0.5893399715423584,239.74233317375186,7.186002987000001,246.92833616075185,238.24986910820004,2,5
5.0,811.0,7530.0,28.0,7.0,11.0,247.50215506553647,76.0,76.0,4.0,1.0,0.5615339279174804,248.4400601387024,7.833443911,256.2735040497024,246.94060897827148,2,5
5.0,811.0,7530.0,29.0,8.0,11.0,256.79561305046076,76.0,76.0,3.0,1.0,0.5064239501953125,257.788850069046,6.551136357000002,264.33998642604604,256.28918099403376,2,5
5.0,811.0,7530.0,30.0,9.0,11.0,264.97152614593506,82.0,82.0,3.0,1.0,0.6162221431732178,265.85481810569763,6.8253593409999995,272.68017744669766,264.35528898239136,2,5
5.0,811.0,7530.0,31.0,10.0,11.0,273.3153381347656,82.0,82.0,2.0,1.0,0.6200881004333496,274.1953010559082,7.966205196,282.1615062519082,272.6952440738678,2,5
5.0,811.0,7530.0,32.0,11.0,11.0,282.76102495193476,76.0,76.0,4.0,1.0,0.5834259986877441,283.6771161556244,8.316670306,291.9937864616244,282.17758703231806,2,5
5.0,811.0,7530.0,33.0,12.0,11.0,292.6039731502533,76.0,76.0,2.0,1.0,0.59517502784729,293.5092680454254,6.5996902660000005,300.1089583114254,292.00879311561584,2,5
5.0,811.0,7530.0,34.0,13.0,11.0,300.6937019824982,76.0,76.0,4.0,1.0,0.568958044052124,301.6243159770965,6.1421443610000015,307.7664603380965,300.12473797798157,2,5
5.0,811.0,7530.0,35.0,14.0,11.0,308.3294091224671,76.0,76.0,3.0,1.0,0.5473089218139648,309.2818009853363,6.996471843999999,316.2782728293363,307.7821309566497,2,5
5.0,811.0,7530.0,36.0,15.0,11.0,316.86228704452515,82.0,82.0,0.0,1.0,0.5646078586578369,317.7969989776612,7.37655801,325.1735569876612,316.2976770401001,2,5
5.0,811.0,7530.0,37.0,16.0,11.0,325.69906497001654,76.0,76.0,2.0,1.0,0.510810136795044,326.68813800811773,6.198782992999998,332.88692100111774,325.1882469654083,2,5
5.0,811.0,7530.0,38.0,17.0,11.0,333.4029531478881,76.0,76.0,0.0,1.0,0.4991750717163086,334.4039759635925,6.8236166030000005,341.2275925665925,332.90376496315,2,5
5.0,811.0,7530.0,39.0,18.0,11.0,341.814593076706,76.0,76.0,3.0,1.0,0.5620670318603516,342.7436351776123,7.023105083000001,349.7667402606123,341.2525241374969,2,5
5.0,811.0,7530.0,40.0,19.0,11.0,350.3233571052551,76.0,76.0,3.0,1.0,0.538902997970581,351.2841901779175,7.974849629999999,359.2590398079175,349.7844500541687,2,5
5.0,811.0,7530.0,41.0,20.0,11.0,359.8791539669037,82.0,82.0,1.0,1.0,0.603830099105835,360.7751729488373,8.33580511,369.1109780588373,359.2753210067749,2,5
5.0,811.0,7530.0,42.0,21.0,11.0,369.70492911338806,82.0,82.0,3.0,1.0,0.572948932647705,370.62359499931335,6.763984022000001,377.38757902131334,369.1319739818573,2,5
5.0,811.0,7530.0,43.0,22.0,11.0,378.02077603340155,82.0,82.0,5.0,1.0,0.6155068874359131,378.9050869941712,8.482623584,387.3877105781712,377.4052619934081,2,5
5.0,811.0,7530.0,44.0,23.0,11.0,387.93351602554316,76.0,76.0,2.0,1.0,0.5291600227355956,388.9044711589812,7.718719605,396.6231907639812,387.4043719768524,2,5
5.0,811.0,7530.0,45.0,24.0,11.0,397.1482141017913,82.0,82.0,2.0,1.0,0.5122640132904052,398.1359460353851,8.637534137999998,406.77348017338505,396.6359450817108,2,5
5.0,811.0,7530.0,46.0,25.0,11.0,407.4558491706848,82.0,82.0,3.0,1.0,0.6632459163665771,408.28506994247437,7.401030339,415.68610028147435,406.79258203506475,2,5
5.0,811.0,7530.0,47.0,26.0,11.0,416.2826149463654,76.0,76.0,2.0,1.0,0.5821700096130371,417.1997580528259,9.623171909,426.82292996182593,415.70043897628784,2,5
5.0,811.0,7530.0,48.0,27.0,11.0,427.38545703887934,82.0,82.0,0.0,1.0,0.5452067852020264,428.3404700756073,6.273675208999999,434.6141452846073,426.84024500846857,2,5
5.0,811.0,7530.0,49.0,28.0,11.0,435.18814611434937,76.0,76.0,0.0,1.0,0.5569849014282227,436.13046312332153,8.360017595,444.4904807183215,434.63115406036377,2,5
5.0,811.0,7530.0,50.0,29.0,11.0,445.0539660453796,82.0,82.0,4.0,1.0,0.5489709377288818,446.0047340393065,6.532901352999999,452.5376353923065,444.50499415397644,2,5
5.0,811.0,7530.0,51.0,30.0,11.0,453.10372710227966,82.0,82.0,0.0,1.0,0.5501971244812013,454.05320215225214,6.161457564,460.21465971625213,452.5535280704498,2,5
5.0,811.0,7530.0,52.0,31.0,11.0,460.7685170173645,82.0,82.0,2.0,1.0,0.5415568351745605,461.7270960807801,7.6808590479999985,469.4079551287801,460.2269551753997,2,5
5.0,811.0,7530.0,53.0,32.0,11.0,470.0094110965728,82.0,82.0,3.0,1.0,0.5835299491882324,470.9264631271362,8.778043002999999,479.70450613013617,469.4258770942688,2,5
5.0,811.0,7530.0,54.0,33.0,11.0,480.3050241470337,82.0,82.0,4.0,1.0,0.5799748897552489,481.22404813766474,6.6360624810000015,487.86011061866475,479.72504305839533,2,5
5.0,811.0,7530.0,55.0,34.0,11.0,488.42375516891485,76.0,76.0,0.0,1.0,0.5504779815673827,489.37377810478205,9.319084644,498.69286274878203,487.8732991218567,2,5
5.0,811.0,7530.0,56.0,35.0,11.0,499.246766090393,76.0,76.0,1.0,1.0,0.5415530204772948,500.20494413375854,6.553907212,506.75885134575856,498.7052299976349,2,5
5.0,811.0,7530.0,57.0,36.0,11.0,507.3283901214599,82.0,82.0,3.0,1.0,0.5494849681854248,508.27092814445496,6.206747956999999,514.4776761014549,506.7788980007172,2,5
5.0,811.0,7530.0,58.0,0.0,12.0,514.9291529655457,82.0,76.0,0.0,0.0,0.4340600967407226,515.9952080249785,9.297171513,525.2923795379785,514.4950921535492,2,5
5.0,811.0,7530.0,59.0,1.0,12.0,525.8869919776917,76.0,82.0,0.0,0.0,0.5763318538665771,526.8097910881042,6.645541148,533.4553322361043,525.3106591701508,2,5
