stim_onset, stim_duration, trial_type, rt, accuracy, epoch_length,epoch_trial, epoch_number
1.283097267150878906e-02	1.501583099365234375e+00	0.000000000000000000e+00	4.417729377746582031e-01	1.000000000000000000e+00	3.200000000000000000e+01	0.000000000000000000e+00	4.000000000000000000e+00
6.000356912612915039e+00	1.497694015502929688e+00	1.000000000000000000e+00	5.170528888702392578e-01	1.000000000000000000e+00	3.200000000000000000e+01	1.000000000000000000e+00	4.000000000000000000e+00
1.285590505599975586e+01	1.500973939895629883e+00	2.000000000000000000e+00	4.532341957092285156e-01	1.000000000000000000e+00	3.200000000000000000e+01	2.000000000000000000e+00	4.000000000000000000e+00
2.666473793983459473e+01	1.497765064239501953e+00	3.000000000000000000e+00	6.292250156402587891e-01	0.000000000000000000e+00	3.200000000000000000e+01	3.000000000000000000e+00	4.000000000000000000e+00
3.271896600723266602e+01	1.491786956787109375e+00	4.000000000000000000e+00	4.906649589538574219e-01	1.000000000000000000e+00	3.200000000000000000e+01	4.000000000000000000e+00	4.000000000000000000e+00
4.257554697990417480e+01	1.500504016876220703e+00	5.000000000000000000e+00	5.668089389801025391e-01	0.000000000000000000e+00	3.200000000000000000e+01	5.000000000000000000e+00	4.000000000000000000e+00
5.109831809997558594e+01	1.502076864242553711e+00	6.000000000000000000e+00	4.688749313354492188e-01	0.000000000000000000e+00	3.200000000000000000e+01	6.000000000000000000e+00	4.000000000000000000e+00
5.750333595275878906e+01	1.488013029098510742e+00	7.000000000000000000e+00	5.486989021301269531e-01	0.000000000000000000e+00	3.200000000000000000e+01	7.000000000000000000e+00	4.000000000000000000e+00
6.315678405761718750e+01	1.499712944030761719e+00	8.000000000000000000e+00	4.039859771728515625e-01	0.000000000000000000e+00	3.200000000000000000e+01	8.000000000000000000e+00	4.000000000000000000e+00
6.917345905303955078e+01	1.488173961639404297e+00	9.000000000000000000e+00	5.290801525115966797e-01	0.000000000000000000e+00	3.200000000000000000e+01	9.000000000000000000e+00	4.000000000000000000e+00
7.676656007766723633e+01	1.499774932861328125e+00	1.000000000000000000e+01	4.728589057922363281e-01	0.000000000000000000e+00	3.200000000000000000e+01	1.000000000000000000e+01	4.000000000000000000e+00
9.140939903259277344e+01	1.493605852127075195e+00	1.100000000000000000e+01	5.764260292053222656e-01	0.000000000000000000e+00	3.200000000000000000e+01	1.100000000000000000e+01	4.000000000000000000e+00
1.000488209724426270e+02	1.501388072967529297e+00	1.200000000000000000e+01	6.039590835571289062e-01	0.000000000000000000e+00	3.200000000000000000e+01	1.200000000000000000e+01	4.000000000000000000e+00
1.063696479797363281e+02	1.498131990432739258e+00	1.300000000000000000e+01	5.486600399017333984e-01	0.000000000000000000e+00	3.200000000000000000e+01	1.300000000000000000e+01	4.000000000000000000e+00
1.192120149135589600e+02	1.501506090164184570e+00	1.400000000000000000e+01	4.509859085083007812e-01	1.000000000000000000e+00	3.200000000000000000e+01	1.400000000000000000e+01	4.000000000000000000e+00
1.257826209068298340e+02	1.498481988906860352e+00	1.500000000000000000e+01	5.432109832763671875e-01	0.000000000000000000e+00	3.200000000000000000e+01	1.500000000000000000e+01	4.000000000000000000e+00
1.323714830875396729e+02	1.500514984130859375e+00	1.600000000000000000e+01	6.812348365783691406e-01	0.000000000000000000e+00	3.200000000000000000e+01	1.600000000000000000e+01	4.000000000000000000e+00
1.379088830947875977e+02	1.487232923507690430e+00	1.700000000000000000e+01	4.773919582366943359e-01	0.000000000000000000e+00	3.200000000000000000e+01	1.700000000000000000e+01	4.000000000000000000e+00
1.503997719287872314e+02	1.495320081710815430e+00	1.800000000000000000e+01	5.752031803131103516e-01	0.000000000000000000e+00	3.200000000000000000e+01	1.800000000000000000e+01	4.000000000000000000e+00
1.585061130523681641e+02	1.487541913986206055e+00	1.900000000000000000e+01	4.416661262512207031e-01	0.000000000000000000e+00	3.200000000000000000e+01	1.900000000000000000e+01	4.000000000000000000e+00
1.642763340473175049e+02	1.500174045562744141e+00	2.000000000000000000e+01	5.363538265228271484e-01	0.000000000000000000e+00	3.200000000000000000e+01	2.000000000000000000e+01	4.000000000000000000e+00
1.707589750289916992e+02	1.490185022354125977e+00	2.100000000000000000e+01	5.255868434906005859e-01	0.000000000000000000e+00	3.200000000000000000e+01	2.100000000000000000e+01	4.000000000000000000e+00
1.781692810058593750e+02	1.500914096832275391e+00	2.200000000000000000e+01	4.659669399261474609e-01	0.000000000000000000e+00	3.200000000000000000e+01	2.200000000000000000e+01	4.000000000000000000e+00
1.862914049625396729e+02	1.498196125030517578e+00	2.300000000000000000e+01	4.864161014556884766e-01	0.000000000000000000e+00	3.200000000000000000e+01	2.300000000000000000e+01	4.000000000000000000e+00
1.924626739025115967e+02	1.491989135742187500e+00	2.400000000000000000e+01	4.980258941650390625e-01	0.000000000000000000e+00	3.200000000000000000e+01	2.400000000000000000e+01	4.000000000000000000e+00
1.994670999050140381e+02	1.501942157745361328e+00	2.500000000000000000e+01	5.363850593566894531e-01	0.000000000000000000e+00	3.200000000000000000e+01	2.500000000000000000e+01	4.000000000000000000e+00
2.113426790237426758e+02	1.492297887802124023e+00	2.600000000000000000e+01	4.984271526336669922e-01	0.000000000000000000e+00	3.200000000000000000e+01	2.600000000000000000e+01	4.000000000000000000e+00
2.169130229949951172e+02	1.488507032394409180e+00	2.700000000000000000e+01	4.619510173797607422e-01	0.000000000000000000e+00	3.200000000000000000e+01	2.700000000000000000e+01	4.000000000000000000e+00
2.236340830326080322e+02	1.500023841857910156e+00	2.800000000000000000e+01	4.777710437774658203e-01	1.000000000000000000e+00	3.200000000000000000e+01	2.800000000000000000e+01	4.000000000000000000e+00
2.294881360530853271e+02	1.495381832122802734e+00	2.900000000000000000e+01	4.704108238220214844e-01	1.000000000000000000e+00	3.200000000000000000e+01	2.900000000000000000e+01	4.000000000000000000e+00
2.374439918994903564e+02	1.488010168075561523e+00	3.000000000000000000e+01	4.623639583587646484e-01	0.000000000000000000e+00	3.200000000000000000e+01	3.000000000000000000e+01	4.000000000000000000e+00
2.450811240673065186e+02	1.499431848526000977e+00	3.100000000000000000e+01	6.168680191040039062e-01	1.000000000000000000e+00	3.200000000000000000e+01	3.100000000000000000e+01	4.000000000000000000e+00
2.523543429374694824e+02	1.491609096527099609e+00	3.200000000000000000e+01	4.986770153045654297e-01	0.000000000000000000e+00	3.000000000000000000e+01	0.000000000000000000e+00	5.000000000000000000e+00
2.598427240848541260e+02	1.500983953475952148e+00	3.300000000000000000e+01	5.039961338043212891e-01	1.000000000000000000e+00	3.000000000000000000e+01	1.000000000000000000e+00	5.000000000000000000e+00
2.656796939373016357e+02	1.498641967773437500e+00	3.400000000000000000e+01	5.955810546875000000e-01	0.000000000000000000e+00	3.000000000000000000e+01	2.000000000000000000e+00	5.000000000000000000e+00
2.746523029804229736e+02	1.491549015045166016e+00	3.500000000000000000e+01	4.909310340881347656e-01	0.000000000000000000e+00	3.000000000000000000e+01	3.000000000000000000e+00	5.000000000000000000e+00
2.839759449958801270e+02	1.499480962753295898e+00	3.600000000000000000e+01	4.448668956756591797e-01	0.000000000000000000e+00	3.000000000000000000e+01	4.000000000000000000e+00	5.000000000000000000e+00
2.959336149692535400e+02	1.501255989074707031e+00	3.700000000000000000e+01	4.680218696594238281e-01	0.000000000000000000e+00	3.000000000000000000e+01	5.000000000000000000e+00	5.000000000000000000e+00
3.015217709541320801e+02	1.500242948532104492e+00	3.800000000000000000e+01	5.455458164215087891e-01	0.000000000000000000e+00	3.000000000000000000e+01	6.000000000000000000e+00	5.000000000000000000e+00
3.081590719223022461e+02	1.495646953582763672e+00	3.900000000000000000e+01	5.620179176330566406e-01	0.000000000000000000e+00	3.000000000000000000e+01	7.000000000000000000e+00	5.000000000000000000e+00
3.194495129585266113e+02	1.502100944519042969e+00	4.000000000000000000e+01	7.063469886779785156e-01	1.000000000000000000e+00	3.000000000000000000e+01	8.000000000000000000e+00	5.000000000000000000e+00
3.290901119709014893e+02	1.483904123306274414e+00	4.100000000000000000e+01	4.512660503387451172e-01	0.000000000000000000e+00	3.000000000000000000e+01	9.000000000000000000e+00	5.000000000000000000e+00
3.455847489833831787e+02	1.498425006866455078e+00	4.200000000000000000e+01	5.934631824493408203e-01	0.000000000000000000e+00	3.000000000000000000e+01	1.000000000000000000e+01	5.000000000000000000e+00
3.564756810665130615e+02	1.489706993103027344e+00	4.300000000000000000e+01	4.599699974060058594e-01	0.000000000000000000e+00	3.000000000000000000e+01	1.100000000000000000e+01	5.000000000000000000e+00
3.641808888912200928e+02	1.499758005142211914e+00	4.400000000000000000e+01	4.576518535614013672e-01	0.000000000000000000e+00	3.000000000000000000e+01	1.200000000000000000e+01	5.000000000000000000e+00
3.747221128940582275e+02	1.500895023345947266e+00	4.500000000000000000e+01	5.309422016143798828e-01	0.000000000000000000e+00	3.000000000000000000e+01	1.300000000000000000e+01	5.000000000000000000e+00
3.854121880531311035e+02	1.499389886856079102e+00	4.600000000000000000e+01	4.965739250183105469e-01	0.000000000000000000e+00	3.000000000000000000e+01	1.400000000000000000e+01	5.000000000000000000e+00
3.914101328849792480e+02	1.490703105926513672e+00	4.700000000000000000e+01	4.654889106750488281e-01	0.000000000000000000e+00	3.000000000000000000e+01	1.500000000000000000e+01	5.000000000000000000e+00
4.016400349140167236e+02	1.501296043395996094e+00	4.800000000000000000e+01	4.652869701385498047e-01	0.000000000000000000e+00	3.000000000000000000e+01	1.600000000000000000e+01	5.000000000000000000e+00
4.084780280590057373e+02	1.484091043472290039e+00	4.900000000000000000e+01	5.295760631561279297e-01	0.000000000000000000e+00	3.000000000000000000e+01	1.700000000000000000e+01	5.000000000000000000e+00
4.158004710674285889e+02	1.489989995956420898e+00	5.000000000000000000e+01	5.293090343475341797e-01	0.000000000000000000e+00	3.000000000000000000e+01	1.800000000000000000e+01	5.000000000000000000e+00
4.216371650695800781e+02	1.501063823699951172e+00	5.100000000000000000e+01	5.056412220001220703e-01	0.000000000000000000e+00	3.000000000000000000e+01	1.900000000000000000e+01	5.000000000000000000e+00
4.271745660305023193e+02	1.497237920761108398e+00	5.200000000000000000e+01	5.388247966766357422e-01	0.000000000000000000e+00	3.000000000000000000e+01	2.000000000000000000e+01	5.000000000000000000e+00
4.347793800830841064e+02	1.491833925247192383e+00	5.300000000000000000e+01	4.917769432067871094e-01	0.000000000000000000e+00	3.000000000000000000e+01	2.100000000000000000e+01	5.000000000000000000e+00
4.413511579036712646e+02	1.500939130783081055e+00	5.400000000000000000e+01	4.659919738769531250e-01	0.000000000000000000e+00	3.000000000000000000e+01	2.200000000000000000e+01	5.000000000000000000e+00
4.501352670192718506e+02	1.489479064941406250e+00	5.500000000000000000e+01	4.505639076232910156e-01	0.000000000000000000e+00	3.000000000000000000e+01	2.300000000000000000e+01	5.000000000000000000e+00
4.584133720397949219e+02	1.499990940093994141e+00	5.600000000000000000e+01	5.042901039123535156e-01	0.000000000000000000e+00	3.000000000000000000e+01	2.400000000000000000e+01	5.000000000000000000e+00
4.640497028827667236e+02	1.499567031860351562e+00	5.700000000000000000e+01	4.745769500732421875e-01	1.000000000000000000e+00	3.000000000000000000e+01	2.500000000000000000e+01	5.000000000000000000e+00
4.727395761013031006e+02	1.491428852081298828e+00	5.800000000000000000e+01	5.384249687194824219e-01	1.000000000000000000e+00	3.000000000000000000e+01	2.600000000000000000e+01	5.000000000000000000e+00
4.792102921009063721e+02	1.487075805664062500e+00	5.900000000000000000e+01	5.134429931640625000e-01	0.000000000000000000e+00	3.000000000000000000e+01	2.700000000000000000e+01	5.000000000000000000e+00
