stim_onset, stim_duration, trial_type, rt, accuracy, epoch_length,epoch_trial, epoch_number
1.632380485534667969e-02	1.500935077667236328e+00	0.000000000000000000e+00	5.898728370666503906e-01	0.000000000000000000e+00	3.500000000000000000e+01	2.700000000000000000e+01	7.000000000000000000e+00
5.645833969116210938e+00	1.487843990325927734e+00	1.000000000000000000e+00	5.473260879516601562e-01	0.000000000000000000e+00	3.500000000000000000e+01	2.800000000000000000e+01	7.000000000000000000e+00
1.439280986785888672e+01	1.501214027404785156e+00	2.000000000000000000e+00	5.292320251464843750e-01	0.000000000000000000e+00	3.500000000000000000e+01	2.900000000000000000e+01	7.000000000000000000e+00
2.244775795936584473e+01	1.500229835510253906e+00	3.000000000000000000e+00	5.110499858856201172e-01	0.000000000000000000e+00	3.500000000000000000e+01	3.000000000000000000e+01	7.000000000000000000e+00
2.994751191139221191e+01	1.489964008331298828e+00	4.000000000000000000e+00	4.543609619140625000e-01	0.000000000000000000e+00	3.500000000000000000e+01	3.100000000000000000e+01	7.000000000000000000e+00
4.112832379341125488e+01	1.500174999237060547e+00	5.000000000000000000e+00	5.250358581542968750e-01	0.000000000000000000e+00	3.500000000000000000e+01	3.200000000000000000e+01	7.000000000000000000e+00
4.816619586944580078e+01	1.483919143676757812e+00	6.000000000000000000e+00	4.699568748474121094e-01	1.000000000000000000e+00	3.500000000000000000e+01	3.300000000000000000e+01	7.000000000000000000e+00
5.632234287261962891e+01	1.500451087951660156e+00	7.000000000000000000e+00	5.234389305114746094e-01	0.000000000000000000e+00	3.500000000000000000e+01	3.400000000000000000e+01	7.000000000000000000e+00
6.662915802001953125e+01	1.496888875961303711e+00	8.000000000000000000e+00	4.862689971923828125e-01	0.000000000000000000e+00	4.300000000000000000e+01	0.000000000000000000e+00	8.000000000000000000e+00
7.500110292434692383e+01	1.489738941192626953e+00	9.000000000000000000e+00	4.783108234405517578e-01	0.000000000000000000e+00	4.300000000000000000e+01	1.000000000000000000e+00	8.000000000000000000e+00
8.092229795455932617e+01	1.501425027847290039e+00	1.000000000000000000e+01	4.029839038848876953e-01	0.000000000000000000e+00	4.300000000000000000e+01	2.000000000000000000e+00	8.000000000000000000e+00
9.198015999794006348e+01	1.500079870223999023e+00	1.100000000000000000e+01	5.306589603424072266e-01	0.000000000000000000e+00	4.300000000000000000e+01	3.000000000000000000e+00	8.000000000000000000e+00
1.047884049415588379e+02	1.498774051666259766e+00	1.200000000000000000e+01	5.483710765838623047e-01	0.000000000000000000e+00	4.300000000000000000e+01	4.000000000000000000e+00	8.000000000000000000e+00
1.118270878791809082e+02	1.500234127044677734e+00	1.300000000000000000e+01	4.703428745269775391e-01	0.000000000000000000e+00	4.300000000000000000e+01	5.000000000000000000e+00	8.000000000000000000e+00
1.174972498416900635e+02	1.501526117324829102e+00	1.400000000000000000e+01	6.079449653625488281e-01	0.000000000000000000e+00	4.300000000000000000e+01	6.000000000000000000e+00	8.000000000000000000e+00
1.238184349536895752e+02	1.498749971389770508e+00	1.500000000000000000e+01	4.487130641937255859e-01	0.000000000000000000e+00	4.300000000000000000e+01	7.000000000000000000e+00	8.000000000000000000e+00
1.293998038768768311e+02	1.490615129470825195e+00	1.600000000000000000e+01	5.602929592132568359e-01	0.000000000000000000e+00	4.300000000000000000e+01	8.000000000000000000e+00	8.000000000000000000e+00
1.429148719310760498e+02	1.499922037124633789e+00	1.700000000000000000e+01	4.515190124511718750e-01	0.000000000000000000e+00	4.300000000000000000e+01	9.000000000000000000e+00	8.000000000000000000e+00
1.543394908905029297e+02	1.490206956863403320e+00	1.800000000000000000e+01	6.039171218872070312e-01	0.000000000000000000e+00	4.300000000000000000e+01	1.000000000000000000e+01	8.000000000000000000e+00
1.617782058715820312e+02	1.501068115234375000e+00	1.900000000000000000e+01	5.379021167755126953e-01	0.000000000000000000e+00	4.300000000000000000e+01	1.100000000000000000e+01	8.000000000000000000e+00
1.699948918819427490e+02	1.489902973175048828e+00	2.000000000000000000e+01	5.440568923950195312e-01	0.000000000000000000e+00	4.300000000000000000e+01	1.200000000000000000e+01	8.000000000000000000e+00
1.759711158275604248e+02	1.489639043807983398e+00	2.100000000000000000e+01	4.906611442565917969e-01	0.000000000000000000e+00	4.300000000000000000e+01	1.300000000000000000e+01	8.000000000000000000e+00
1.874462759494781494e+02	1.495789051055908203e+00	2.200000000000000000e+01	5.221321582794189453e-01	0.000000000000000000e+00	4.300000000000000000e+01	1.400000000000000000e+01	8.000000000000000000e+00
1.934999349117279053e+02	1.491252899169921875e+00	2.300000000000000000e+01	5.932707786560058594e-01	0.000000000000000000e+00	4.300000000000000000e+01	1.500000000000000000e+01	8.000000000000000000e+00
1.990544619560241699e+02	1.501313924789428711e+00	2.400000000000000000e+01	4.487419128417968750e-01	0.000000000000000000e+00	4.300000000000000000e+01	1.600000000000000000e+01	8.000000000000000000e+00
2.047908577919006348e+02	1.499406099319458008e+00	2.500000000000000000e+01	5.871350765228271484e-01	1.000000000000000000e+00	4.300000000000000000e+01	1.700000000000000000e+01	8.000000000000000000e+00
2.154320919513702393e+02	1.489743947982788086e+00	2.600000000000000000e+01	5.084359645843505859e-01	0.000000000000000000e+00	4.300000000000000000e+01	1.800000000000000000e+01	8.000000000000000000e+00
2.225378859043121338e+02	1.499672889709472656e+00	2.700000000000000000e+01	5.777790546417236328e-01	1.000000000000000000e+00	4.300000000000000000e+01	1.900000000000000000e+01	8.000000000000000000e+00
2.288912069797515869e+02	1.494626998901367188e+00	2.800000000000000000e+01	6.229429244995117188e-01	1.000000000000000000e+00	4.300000000000000000e+01	2.000000000000000000e+01	8.000000000000000000e+00
2.367145049571990967e+02	1.488441944122314453e+00	2.900000000000000000e+01	4.495790004730224609e-01	1.000000000000000000e+00	4.300000000000000000e+01	2.100000000000000000e+01	8.000000000000000000e+00
2.522916598320007324e+02	1.491753101348876953e+00	3.000000000000000000e+01	4.280860424041748047e-01	0.000000000000000000e+00	4.300000000000000000e+01	2.200000000000000000e+01	8.000000000000000000e+00
2.593788998126983643e+02	1.501625061035156250e+00	3.100000000000000000e+01	4.807929992675781250e-01	0.000000000000000000e+00	4.300000000000000000e+01	2.300000000000000000e+01	8.000000000000000000e+00
2.681855959892272949e+02	1.484784841537475586e+00	3.200000000000000000e+01	5.567178726196289062e-01	0.000000000000000000e+00	4.300000000000000000e+01	2.400000000000000000e+01	8.000000000000000000e+00
2.744733359813690186e+02	1.490278005599975586e+00	3.300000000000000000e+01	6.728501319885253906e-01	0.000000000000000000e+00	4.300000000000000000e+01	2.500000000000000000e+01	8.000000000000000000e+00
2.825459549427032471e+02	1.499459981918334961e+00	3.400000000000000000e+01	4.250919818878173828e-01	0.000000000000000000e+00	4.300000000000000000e+01	2.600000000000000000e+01	8.000000000000000000e+00
2.900111079216003418e+02	1.491183996200561523e+00	3.500000000000000000e+01	4.595489501953125000e-01	1.000000000000000000e+00	4.300000000000000000e+01	2.700000000000000000e+01	8.000000000000000000e+00
2.985392358303070068e+02	1.501988172531127930e+00	3.600000000000000000e+01	7.111630439758300781e-01	0.000000000000000000e+00	4.300000000000000000e+01	2.800000000000000000e+01	8.000000000000000000e+00
3.055114588737487793e+02	1.497882127761840820e+00	3.700000000000000000e+01	5.607368946075439453e-01	0.000000000000000000e+00	4.300000000000000000e+01	2.900000000000000000e+01	8.000000000000000000e+00
3.123827588558197021e+02	1.492357015609741211e+00	3.800000000000000000e+01	5.524940490722656250e-01	0.000000000000000000e+00	4.300000000000000000e+01	3.000000000000000000e+01	8.000000000000000000e+00
3.228398377895355225e+02	1.500072002410888672e+00	3.900000000000000000e+01	5.501780509948730469e-01	0.000000000000000000e+00	4.300000000000000000e+01	3.100000000000000000e+01	8.000000000000000000e+00
3.289233260154724121e+02	1.498915910720825195e+00	4.000000000000000000e+01	5.974280834197998047e-01	0.000000000000000000e+00	4.300000000000000000e+01	3.200000000000000000e+01	8.000000000000000000e+00
3.351655199527740479e+02	1.489104986190795898e+00	4.100000000000000000e+01	6.541481018066406250e-01	1.000000000000000000e+00	4.300000000000000000e+01	3.300000000000000000e+01	8.000000000000000000e+00
3.408693058490753174e+02	1.501207113265991211e+00	4.200000000000000000e+01	5.690231323242187500e-01	0.000000000000000000e+00	4.300000000000000000e+01	3.400000000000000000e+01	8.000000000000000000e+00
3.464237139225006104e+02	1.496260881423950195e+00	4.300000000000000000e+01	6.357071399688720703e-01	0.000000000000000000e+00	4.300000000000000000e+01	3.500000000000000000e+01	8.000000000000000000e+00
3.520608818531036377e+02	1.499988079071044922e+00	4.400000000000000000e+01	4.673249721527099609e-01	0.000000000000000000e+00	4.300000000000000000e+01	3.600000000000000000e+01	8.000000000000000000e+00
3.595489377975463867e+02	1.501103162765502930e+00	4.500000000000000000e+01	4.539430141448974609e-01	0.000000000000000000e+00	4.300000000000000000e+01	3.700000000000000000e+01	8.000000000000000000e+00
3.651701538562774658e+02	1.497642040252685547e+00	4.600000000000000000e+01	5.097301006317138672e-01	0.000000000000000000e+00	4.300000000000000000e+01	3.800000000000000000e+01	8.000000000000000000e+00
3.719247589111328125e+02	1.500523090362548828e+00	4.700000000000000000e+01	4.609160423278808594e-01	0.000000000000000000e+00	4.300000000000000000e+01	3.900000000000000000e+01	8.000000000000000000e+00
3.797968819141387939e+02	1.501288890838623047e+00	4.800000000000000000e+01	5.144450664520263672e-01	0.000000000000000000e+00	4.300000000000000000e+01	4.000000000000000000e+01	8.000000000000000000e+00
3.858845489025115967e+02	1.497026920318603516e+00	4.900000000000000000e+01	5.078620910644531250e-01	0.000000000000000000e+00	4.300000000000000000e+01	4.100000000000000000e+01	8.000000000000000000e+00
3.934726958274841309e+02	1.500941991806030273e+00	5.000000000000000000e+01	5.883040428161621094e-01	0.000000000000000000e+00	4.300000000000000000e+01	4.200000000000000000e+01	8.000000000000000000e+00
3.995602078437805176e+02	1.501042127609252930e+00	5.100000000000000000e+01	6.806459426879882812e-01	1.000000000000000000e+00	9.000000000000000000e+00	0.000000000000000000e+00	9.000000000000000000e+00
4.069326078891754150e+02	1.483128070831298828e+00	5.200000000000000000e+01	5.760920047760009766e-01	1.000000000000000000e+00	9.000000000000000000e+00	1.000000000000000000e+00	9.000000000000000000e+00
4.129030299186706543e+02	1.491874933242797852e+00	5.300000000000000000e+01	5.203869342803955078e-01	1.000000000000000000e+00	9.000000000000000000e+00	2.000000000000000000e+00	9.000000000000000000e+00
4.193733949661254883e+02	1.501824855804443359e+00	5.400000000000000000e+01	5.450420379638671875e-01	1.000000000000000000e+00	9.000000000000000000e+00	3.000000000000000000e+00	9.000000000000000000e+00
4.249444198608398438e+02	1.498507022857666016e+00	5.500000000000000000e+01	5.048758983612060547e-01	0.000000000000000000e+00	9.000000000000000000e+00	4.000000000000000000e+00	9.000000000000000000e+00
4.405721278190612793e+02	1.501662969589233398e+00	5.600000000000000000e+01	6.435670852661132812e-01	1.000000000000000000e+00	9.000000000000000000e+00	5.000000000000000000e+00	9.000000000000000000e+00
4.480103828907012939e+02	1.483776092529296875e+00	5.700000000000000000e+01	6.742470264434814453e-01	1.000000000000000000e+00	9.000000000000000000e+00	6.000000000000000000e+00	9.000000000000000000e+00
4.546982989311218262e+02	1.490189075469970703e+00	5.800000000000000000e+01	4.962749481201171875e-01	0.000000000000000000e+00	9.000000000000000000e+00	7.000000000000000000e+00	9.000000000000000000e+00
4.606524879932403564e+02	1.501010894775390625e+00	5.900000000000000000e+01	5.067598819732666016e-01	0.000000000000000000e+00	9.000000000000000000e+00	8.000000000000000000e+00	9.000000000000000000e+00
