stim_onset, stim_duration, trial_type, rt, accuracy, epoch_length,epoch_trial, epoch_number
1.660108566284179688e-02	1.500016927719116211e+00	0.000000000000000000e+00	4.414150714874267578e-01	0.000000000000000000e+00	2.700000000000000000e+01	2.600000000000000000e+01	1.000000000000000000e+01
8.382980108261108398e+00	1.499382972717285156e+00	1.000000000000000000e+00	4.867908954620361328e-01	1.000000000000000000e+00	2.700000000000000000e+01	0.000000000000000000e+00	1.100000000000000000e+01
1.641505599021911621e+01	1.498908042907714844e+00	2.000000000000000000e+00	5.733470916748046875e-01	0.000000000000000000e+00	2.700000000000000000e+01	1.000000000000000000e+00	1.100000000000000000e+01
2.711283016204833984e+01	1.499790906906127930e+00	3.000000000000000000e+00	5.664381980895996094e-01	0.000000000000000000e+00	2.700000000000000000e+01	2.000000000000000000e+00	1.100000000000000000e+01
3.801187205314636230e+01	1.498677968978881836e+00	4.000000000000000000e+00	5.051369667053222656e-01	0.000000000000000000e+00	2.700000000000000000e+01	3.000000000000000000e+00	1.100000000000000000e+01
4.779305219650268555e+01	1.500111818313598633e+00	5.000000000000000000e+00	5.367000102996826172e-01	0.000000000000000000e+00	2.700000000000000000e+01	4.000000000000000000e+00	1.100000000000000000e+01
5.742593216896057129e+01	1.499048948287963867e+00	6.000000000000000000e+00	5.676560401916503906e-01	0.000000000000000000e+00	2.700000000000000000e+01	5.000000000000000000e+00	1.100000000000000000e+01
6.530683112144470215e+01	1.500233888626098633e+00	7.000000000000000000e+00	5.564661026000976562e-01	0.000000000000000000e+00	2.700000000000000000e+01	6.000000000000000000e+00	1.100000000000000000e+01
7.322317600250244141e+01	1.499968051910400391e+00	8.000000000000000000e+00	5.478320121765136719e-01	1.000000000000000000e+00	2.700000000000000000e+01	7.000000000000000000e+00	1.100000000000000000e+01
8.087141108512878418e+01	1.500695943832397461e+00	9.000000000000000000e+00	5.173311233520507812e-01	1.000000000000000000e+00	2.700000000000000000e+01	8.000000000000000000e+00	1.100000000000000000e+01
9.062039518356323242e+01	1.499711990356445312e+00	1.000000000000000000e+01	5.671119689941406250e-01	0.000000000000000000e+00	2.700000000000000000e+01	9.000000000000000000e+00	1.100000000000000000e+01
9.846963405609130859e+01	1.500115156173706055e+00	1.100000000000000000e+01	5.446739196777343750e-01	0.000000000000000000e+00	2.700000000000000000e+01	1.000000000000000000e+01	1.100000000000000000e+01
1.070353531837463379e+02	1.499876976013183594e+00	1.200000000000000000e+01	6.696410179138183594e-01	0.000000000000000000e+00	2.700000000000000000e+01	1.100000000000000000e+01	1.100000000000000000e+01
1.160667951107025146e+02	1.500381946563720703e+00	1.300000000000000000e+01	5.208568572998046875e-01	0.000000000000000000e+00	2.700000000000000000e+01	1.200000000000000000e+01	1.100000000000000000e+01
1.259320600032806396e+02	1.500982999801635742e+00	1.400000000000000000e+01	5.443820953369140625e-01	0.000000000000000000e+00	2.700000000000000000e+01	1.300000000000000000e+01	1.100000000000000000e+01
1.342643311023712158e+02	1.499948024749755859e+00	1.500000000000000000e+01	5.587220191955566406e-01	0.000000000000000000e+00	2.700000000000000000e+01	1.400000000000000000e+01	1.100000000000000000e+01
1.445962250232696533e+02	1.499577045440673828e+00	1.600000000000000000e+01	4.886639118194580078e-01	0.000000000000000000e+00	2.700000000000000000e+01	1.500000000000000000e+01	1.100000000000000000e+01
1.527780971527099609e+02	1.499927997589111328e+00	1.700000000000000000e+01	5.495960712432861328e-01	0.000000000000000000e+00	2.700000000000000000e+01	1.600000000000000000e+01	1.100000000000000000e+01
1.640934350490570068e+02	1.499874114990234375e+00	1.800000000000000000e+01	6.108357906341552734e-01	0.000000000000000000e+00	2.700000000000000000e+01	1.700000000000000000e+01	1.100000000000000000e+01
1.724596171379089355e+02	1.499801874160766602e+00	1.900000000000000000e+01	5.573389530181884766e-01	0.000000000000000000e+00	2.700000000000000000e+01	1.800000000000000000e+01	1.100000000000000000e+01
1.806245150566101074e+02	1.499740123748779297e+00	2.000000000000000000e+01	5.723600387573242188e-01	0.000000000000000000e+00	2.700000000000000000e+01	1.900000000000000000e+01	1.100000000000000000e+01
1.888906271457672119e+02	1.498836040496826172e+00	2.100000000000000000e+01	5.100598335266113281e-01	0.000000000000000000e+00	2.700000000000000000e+01	2.000000000000000000e+01	1.100000000000000000e+01
1.966395711898803711e+02	1.499006032943725586e+00	2.200000000000000000e+01	4.939758777618408203e-01	0.000000000000000000e+00	2.700000000000000000e+01	2.100000000000000000e+01	1.100000000000000000e+01
2.044209930896759033e+02	1.499897956848144531e+00	2.300000000000000000e+01	6.368858814239501953e-01	1.000000000000000000e+00	2.700000000000000000e+01	2.200000000000000000e+01	1.100000000000000000e+01
2.130696082115173340e+02	1.500433921813964844e+00	2.400000000000000000e+01	6.053738594055175781e-01	0.000000000000000000e+00	2.700000000000000000e+01	2.300000000000000000e+01	1.100000000000000000e+01
2.218187851905822754e+02	1.500247955322265625e+00	2.500000000000000000e+01	6.328320503234863281e-01	0.000000000000000000e+00	2.700000000000000000e+01	2.400000000000000000e+01	1.100000000000000000e+01
2.295507671833038330e+02	1.499976873397827148e+00	2.600000000000000000e+01	5.465960502624511719e-01	1.000000000000000000e+00	2.700000000000000000e+01	2.500000000000000000e+01	1.100000000000000000e+01
2.385994701385498047e+02	1.500385046005249023e+00	2.700000000000000000e+01	5.107212066650390625e-01	0.000000000000000000e+00	2.700000000000000000e+01	2.600000000000000000e+01	1.100000000000000000e+01
2.473152220249176025e+02	1.499984025955200195e+00	2.800000000000000000e+01	5.453708171844482422e-01	1.000000000000000000e+00	2.500000000000000000e+01	0.000000000000000000e+00	1.200000000000000000e+01
2.566808540821075439e+02	1.499617099761962891e+00	2.900000000000000000e+01	5.627968311309814453e-01	0.000000000000000000e+00	2.500000000000000000e+01	1.000000000000000000e+00	1.200000000000000000e+01
2.647626051902770996e+02	1.499581813812255859e+00	3.000000000000000000e+01	6.208219528198242188e-01	0.000000000000000000e+00	2.500000000000000000e+01	2.000000000000000000e+00	1.200000000000000000e+01
2.731120672225952148e+02	1.498879909515380859e+00	3.100000000000000000e+01	4.999880790710449219e-01	0.000000000000000000e+00	2.500000000000000000e+01	3.000000000000000000e+00	1.200000000000000000e+01
2.826106801033020020e+02	1.499299049377441406e+00	3.200000000000000000e+01	5.299799442291259766e-01	0.000000000000000000e+00	2.500000000000000000e+01	4.000000000000000000e+00	1.200000000000000000e+01
2.924591341018676758e+02	1.499170064926147461e+00	3.300000000000000000e+01	6.133470535278320312e-01	0.000000000000000000e+00	2.500000000000000000e+01	5.000000000000000000e+00	1.200000000000000000e+01
3.005903332233428955e+02	1.500931978225708008e+00	3.400000000000000000e+01	6.148669719696044922e-01	0.000000000000000000e+00	2.500000000000000000e+01	6.000000000000000000e+00	1.200000000000000000e+01
3.082565810680389404e+02	1.499926090240478516e+00	3.500000000000000000e+01	7.136569023132324219e-01	1.000000000000000000e+00	2.500000000000000000e+01	7.000000000000000000e+00	1.200000000000000000e+01
3.167717092037200928e+02	1.500186920166015625e+00	3.600000000000000000e+01	5.880050659179687500e-01	1.000000000000000000e+00	2.500000000000000000e+01	8.000000000000000000e+00	1.200000000000000000e+01
3.256707301139831543e+02	1.500113010406494141e+00	3.700000000000000000e+01	7.046210765838623047e-01	0.000000000000000000e+00	2.500000000000000000e+01	9.000000000000000000e+00	1.200000000000000000e+01
3.334031929969787598e+02	1.499924182891845703e+00	3.800000000000000000e+01	5.571660995483398438e-01	0.000000000000000000e+00	2.500000000000000000e+01	1.000000000000000000e+01	1.200000000000000000e+01
3.417516210079193115e+02	1.500061988830566406e+00	3.900000000000000000e+01	6.464588642120361328e-01	1.000000000000000000e+00	2.500000000000000000e+01	1.100000000000000000e+01	1.200000000000000000e+01
3.503006651401519775e+02	1.499625921249389648e+00	4.000000000000000000e+01	5.621850490570068359e-01	0.000000000000000000e+00	2.500000000000000000e+01	1.200000000000000000e+01	1.200000000000000000e+01
3.597991211414337158e+02	1.500272035598754883e+00	4.100000000000000000e+01	5.756170749664306641e-01	0.000000000000000000e+00	2.500000000000000000e+01	1.300000000000000000e+01	1.200000000000000000e+01
3.696647961139678955e+02	1.499665021896362305e+00	4.200000000000000000e+01	5.753440856933593750e-01	0.000000000000000000e+00	2.500000000000000000e+01	1.400000000000000000e+01	1.200000000000000000e+01
3.779633030891418457e+02	1.500209093093872070e+00	4.300000000000000000e+01	5.726990699768066406e-01	0.000000000000000000e+00	2.500000000000000000e+01	1.500000000000000000e+01	1.200000000000000000e+01
3.879783911705017090e+02	1.499994039535522461e+00	4.400000000000000000e+01	6.832220554351806641e-01	0.000000000000000000e+00	2.500000000000000000e+01	1.600000000000000000e+01	1.200000000000000000e+01
3.972272400856018066e+02	1.500273942947387695e+00	4.500000000000000000e+01	6.222159862518310547e-01	0.000000000000000000e+00	2.500000000000000000e+01	1.700000000000000000e+01	1.200000000000000000e+01
4.073930420875549316e+02	1.499548912048339844e+00	4.600000000000000000e+01	5.813260078430175781e-01	0.000000000000000000e+00	2.500000000000000000e+01	1.800000000000000000e+01	1.200000000000000000e+01
4.163246560096740723e+02	1.499983072280883789e+00	4.700000000000000000e+01	5.831289291381835938e-01	1.000000000000000000e+00	2.500000000000000000e+01	1.900000000000000000e+01	1.200000000000000000e+01
4.274737792015075684e+02	1.499212980270385742e+00	4.800000000000000000e+01	6.127989292144775391e-01	0.000000000000000000e+00	2.500000000000000000e+01	2.000000000000000000e+01	1.200000000000000000e+01
4.352717931270599365e+02	1.499624013900756836e+00	4.900000000000000000e+01	5.313909053802490234e-01	0.000000000000000000e+00	2.500000000000000000e+01	2.100000000000000000e+01	1.200000000000000000e+01
4.451537151336669922e+02	1.499908924102783203e+00	5.000000000000000000e+01	6.512091159820556641e-01	1.000000000000000000e+00	2.500000000000000000e+01	2.200000000000000000e+01	1.200000000000000000e+01
4.532200150489807129e+02	1.500205039978027344e+00	5.100000000000000000e+01	5.196750164031982422e-01	0.000000000000000000e+00	2.500000000000000000e+01	2.300000000000000000e+01	1.200000000000000000e+01
4.609010810852050781e+02	1.500086069107055664e+00	5.200000000000000000e+01	6.955020427703857422e-01	1.000000000000000000e+00	2.500000000000000000e+01	2.400000000000000000e+01	1.200000000000000000e+01
4.701174001693725586e+02	1.499754905700683594e+00	5.300000000000000000e+01	5.918390750885009766e-01	0.000000000000000000e+00	2.200000000000000000e+01	0.000000000000000000e+00	1.300000000000000000e+01
4.804150521755218506e+02	1.500197887420654297e+00	5.400000000000000000e+01	5.679879188537597656e-01	0.000000000000000000e+00	2.200000000000000000e+01	1.000000000000000000e+00	1.300000000000000000e+01
4.885814270973205566e+02	1.500025987625122070e+00	5.500000000000000000e+01	6.003229618072509766e-01	0.000000000000000000e+00	2.200000000000000000e+01	2.000000000000000000e+00	1.300000000000000000e+01
4.994303841590881348e+02	1.498800039291381836e+00	5.600000000000000000e+01	5.830118656158447266e-01	0.000000000000000000e+00	2.200000000000000000e+01	3.000000000000000000e+00	1.300000000000000000e+01
5.075114130973815918e+02	1.499953031539916992e+00	5.700000000000000000e+01	7.208600044250488281e-01	0.000000000000000000e+00	2.200000000000000000e+01	4.000000000000000000e+00	1.300000000000000000e+01
5.152437300682067871e+02	1.500496149063110352e+00	5.800000000000000000e+01	5.523688793182373047e-01	0.000000000000000000e+00	2.200000000000000000e+01	5.000000000000000000e+00	1.300000000000000000e+01
5.260756990909576416e+02	1.499799013137817383e+00	5.900000000000000000e+01	5.187180042266845703e-01	0.000000000000000000e+00	2.200000000000000000e+01	6.000000000000000000e+00	1.300000000000000000e+01
