stim_onset, stim_duration, trial_type, rt, accuracy, epoch_length,epoch_trial, epoch_number
1.590204238891601562e-02	1.500079154968261719e+00	0.000000000000000000e+00	3.757019042968750000e-01	1.000000000000000000e+00	2.100000000000000000e+01	5.000000000000000000e+00	1.400000000000000000e+01
8.381994009017944336e+00	1.500018119812011719e+00	1.000000000000000000e+00	5.345780849456787109e-01	1.000000000000000000e+00	2.100000000000000000e+01	6.000000000000000000e+00	1.400000000000000000e+01
1.641419100761413574e+01	1.499091148376464844e+00	2.000000000000000000e+00	5.141069889068603516e-01	1.000000000000000000e+00	2.100000000000000000e+01	7.000000000000000000e+00	1.400000000000000000e+01
2.711221814155578613e+01	1.499459028244018555e+00	3.000000000000000000e+00	5.827300548553466797e-01	1.000000000000000000e+00	2.100000000000000000e+01	8.000000000000000000e+00	1.400000000000000000e+01
3.801124811172485352e+01	1.499643087387084961e+00	4.000000000000000000e+00	5.541532039642333984e-01	0.000000000000000000e+00	2.100000000000000000e+01	9.000000000000000000e+00	1.400000000000000000e+01
4.779271817207336426e+01	1.499964952468872070e+00	5.000000000000000000e+00	6.286931037902832031e-01	1.000000000000000000e+00	2.100000000000000000e+01	1.000000000000000000e+01	1.400000000000000000e+01
5.742455601692199707e+01	1.500190019607543945e+00	6.000000000000000000e+00	5.394248962402343750e-01	1.000000000000000000e+00	2.100000000000000000e+01	1.100000000000000000e+01	1.400000000000000000e+01
6.530680799484252930e+01	1.499809980392456055e+00	7.000000000000000000e+00	5.020020008087158203e-01	1.000000000000000000e+00	2.100000000000000000e+01	1.200000000000000000e+01	1.400000000000000000e+01
7.322208213806152344e+01	1.500180959701538086e+00	8.000000000000000000e+00	5.262830257415771484e-01	1.000000000000000000e+00	2.100000000000000000e+01	1.300000000000000000e+01	1.400000000000000000e+01
8.087132310867309570e+01	1.500226974487304688e+00	9.000000000000000000e+00	5.069670677185058594e-01	1.000000000000000000e+00	2.100000000000000000e+01	1.400000000000000000e+01	1.400000000000000000e+01
9.061996102333068848e+01	1.499900102615356445e+00	1.000000000000000000e+01	4.870979785919189453e-01	1.000000000000000000e+00	2.100000000000000000e+01	1.500000000000000000e+01	1.400000000000000000e+01
9.846885204315185547e+01	1.499707937240600586e+00	1.100000000000000000e+01	5.381419658660888672e-01	1.000000000000000000e+00	2.100000000000000000e+01	1.600000000000000000e+01	1.400000000000000000e+01
1.070175130367279053e+02	1.500422000885009766e+00	1.200000000000000000e+01	5.840749740600585938e-01	0.000000000000000000e+00	2.100000000000000000e+01	1.700000000000000000e+01	1.400000000000000000e+01
1.160499269962310791e+02	1.500097036361694336e+00	1.300000000000000000e+01	4.902279376983642578e-01	1.000000000000000000e+00	2.100000000000000000e+01	1.800000000000000000e+01	1.400000000000000000e+01
1.259151871204376221e+02	1.499691963195800781e+00	1.400000000000000000e+01	4.748167991638183594e-01	1.000000000000000000e+00	2.100000000000000000e+01	1.900000000000000000e+01	1.400000000000000000e+01
1.342471680641174316e+02	1.499684095382690430e+00	1.500000000000000000e+01	5.246160030364990234e-01	1.000000000000000000e+00	2.100000000000000000e+01	2.000000000000000000e+01	1.400000000000000000e+01
1.445790741443634033e+02	1.500228881835937500e+00	1.600000000000000000e+01	5.542950630187988281e-01	0.000000000000000000e+00	1.700000000000000000e+01	0.000000000000000000e+00	1.500000000000000000e+01
1.527612481117248535e+02	1.500143051147460938e+00	1.700000000000000000e+01	5.920221805572509766e-01	0.000000000000000000e+00	1.700000000000000000e+01	1.000000000000000000e+00	1.500000000000000000e+01
1.640760850906372070e+02	1.499701023101806641e+00	1.800000000000000000e+01	5.966780185699462891e-01	0.000000000000000000e+00	1.700000000000000000e+01	2.000000000000000000e+00	1.500000000000000000e+01
1.724249551296234131e+02	1.500359058380126953e+00	1.900000000000000000e+01	5.396831035614013672e-01	1.000000000000000000e+00	1.700000000000000000e+01	3.000000000000000000e+00	1.500000000000000000e+01
1.805741469860076904e+02	1.499392032623291016e+00	2.000000000000000000e+01	6.191949844360351562e-01	0.000000000000000000e+00	1.700000000000000000e+01	4.000000000000000000e+00	1.500000000000000000e+01
1.888397791385650635e+02	1.500166893005371094e+00	2.100000000000000000e+01	5.972220897674560547e-01	0.000000000000000000e+00	1.700000000000000000e+01	5.000000000000000000e+00	1.500000000000000000e+01
1.965889961719512939e+02	1.498804807662963867e+00	2.200000000000000000e+01	6.197559833526611328e-01	1.000000000000000000e+00	1.700000000000000000e+01	6.000000000000000000e+00	1.500000000000000000e+01
2.043709871768951416e+02	1.499863862991333008e+00	2.300000000000000000e+01	5.357329845428466797e-01	1.000000000000000000e+00	1.700000000000000000e+01	7.000000000000000000e+00	1.500000000000000000e+01
2.130194001197814941e+02	1.499768972396850586e+00	2.400000000000000000e+01	5.569801330566406250e-01	0.000000000000000000e+00	1.700000000000000000e+01	8.000000000000000000e+00	1.500000000000000000e+01
2.217682821750640869e+02	1.499993801116943359e+00	2.500000000000000000e+01	5.539360046386718750e-01	1.000000000000000000e+00	1.700000000000000000e+01	9.000000000000000000e+00	1.500000000000000000e+01
2.295004420280456543e+02	1.500013113021850586e+00	2.600000000000000000e+01	5.656459331512451172e-01	1.000000000000000000e+00	1.700000000000000000e+01	1.000000000000000000e+01	1.500000000000000000e+01
2.385486660003662109e+02	1.500255107879638672e+00	2.700000000000000000e+01	5.569238662719726562e-01	1.000000000000000000e+00	1.700000000000000000e+01	1.100000000000000000e+01	1.500000000000000000e+01
2.472644841670989990e+02	1.499918937683105469e+00	2.800000000000000000e+01	5.938949584960937500e-01	1.000000000000000000e+00	1.700000000000000000e+01	1.200000000000000000e+01	1.500000000000000000e+01
2.566306080818176270e+02	1.499324083328247070e+00	2.900000000000000000e+01	6.853477954864501953e-01	1.000000000000000000e+00	1.700000000000000000e+01	1.300000000000000000e+01	1.500000000000000000e+01
2.647119619846343994e+02	1.500238180160522461e+00	3.000000000000000000e+01	6.119329929351806641e-01	1.000000000000000000e+00	1.700000000000000000e+01	1.400000000000000000e+01	1.500000000000000000e+01
2.730609931945800781e+02	1.500011920928955078e+00	3.100000000000000000e+01	7.396199703216552734e-01	1.000000000000000000e+00	1.700000000000000000e+01	1.500000000000000000e+01	1.500000000000000000e+01
2.825599050521850586e+02	1.499202966690063477e+00	3.200000000000000000e+01	5.762801170349121094e-01	1.000000000000000000e+00	1.700000000000000000e+01	1.600000000000000000e+01	1.500000000000000000e+01
2.924082930088043213e+02	1.500202178955078125e+00	3.300000000000000000e+01	7.176628112792968750e-01	1.000000000000000000e+00	2.700000000000000000e+01	0.000000000000000000e+00	1.600000000000000000e+01
3.005401391983032227e+02	1.500062942504882812e+00	3.400000000000000000e+01	5.917339324951171875e-01	1.000000000000000000e+00	2.700000000000000000e+01	1.000000000000000000e+00	1.600000000000000000e+01
3.082055251598358154e+02	1.500090837478637695e+00	3.500000000000000000e+01	7.082180976867675781e-01	1.000000000000000000e+00	2.700000000000000000e+01	2.000000000000000000e+00	1.600000000000000000e+01
3.167219359874725342e+02	1.499980211257934570e+00	3.600000000000000000e+01	5.354089736938476562e-01	1.000000000000000000e+00	2.700000000000000000e+01	3.000000000000000000e+00	1.600000000000000000e+01
3.256207611560821533e+02	1.499922037124633789e+00	3.700000000000000000e+01	6.002428531646728516e-01	1.000000000000000000e+00	2.700000000000000000e+01	4.000000000000000000e+00	1.600000000000000000e+01
3.333523681163787842e+02	1.500557899475097656e+00	3.800000000000000000e+01	6.334550380706787109e-01	1.000000000000000000e+00	2.700000000000000000e+01	5.000000000000000000e+00	1.600000000000000000e+01
3.417013831138610840e+02	1.499961853027343750e+00	3.900000000000000000e+01	5.993461608886718750e-01	1.000000000000000000e+00	2.700000000000000000e+01	6.000000000000000000e+00	1.600000000000000000e+01
3.502498071193695068e+02	1.500097990036010742e+00	4.000000000000000000e+01	5.906660556793212891e-01	1.000000000000000000e+00	2.700000000000000000e+01	7.000000000000000000e+00	1.600000000000000000e+01
3.597484571933746338e+02	1.500262975692749023e+00	4.100000000000000000e+01	5.626189708709716797e-01	1.000000000000000000e+00	2.700000000000000000e+01	8.000000000000000000e+00	1.600000000000000000e+01
3.696140990257263184e+02	1.499447107315063477e+00	4.200000000000000000e+01	5.796740055084228516e-01	1.000000000000000000e+00	2.700000000000000000e+01	9.000000000000000000e+00	1.600000000000000000e+01
3.779126570224761963e+02	1.500632047653198242e+00	4.300000000000000000e+01	5.399250984191894531e-01	1.000000000000000000e+00	2.700000000000000000e+01	1.000000000000000000e+01	1.600000000000000000e+01
3.879282450675964355e+02	1.499732017517089844e+00	4.400000000000000000e+01	5.720560550689697266e-01	1.000000000000000000e+00	2.700000000000000000e+01	1.100000000000000000e+01	1.600000000000000000e+01
3.971766431331634521e+02	1.500226020812988281e+00	4.500000000000000000e+01	5.833001136779785156e-01	0.000000000000000000e+00	2.700000000000000000e+01	1.200000000000000000e+01	1.600000000000000000e+01
4.073427760601043701e+02	1.499382972717285156e+00	4.600000000000000000e+01	5.538890361785888672e-01	0.000000000000000000e+00	2.700000000000000000e+01	1.300000000000000000e+01	1.600000000000000000e+01
4.162748160362243652e+02	1.499099016189575195e+00	4.700000000000000000e+01	5.215759277343750000e-01	1.000000000000000000e+00	2.700000000000000000e+01	1.400000000000000000e+01	1.600000000000000000e+01
4.274223752021789551e+02	1.500300884246826172e+00	4.800000000000000000e+01	5.826129913330078125e-01	1.000000000000000000e+00	2.700000000000000000e+01	1.500000000000000000e+01	1.600000000000000000e+01
4.352213301658630371e+02	1.500030994415283203e+00	4.900000000000000000e+01	5.046708583831787109e-01	1.000000000000000000e+00	2.700000000000000000e+01	1.600000000000000000e+01	1.600000000000000000e+01
4.451038200855255127e+02	1.500036954879760742e+00	5.000000000000000000e+01	6.168088912963867188e-01	1.000000000000000000e+00	2.700000000000000000e+01	1.700000000000000000e+01	1.600000000000000000e+01
4.531689569950103760e+02	1.500109195709228516e+00	5.100000000000000000e+01	6.051900386810302734e-01	1.000000000000000000e+00	2.700000000000000000e+01	1.800000000000000000e+01	1.600000000000000000e+01
4.608510301113128662e+02	1.500403881072998047e+00	5.200000000000000000e+01	5.861849784851074219e-01	1.000000000000000000e+00	2.700000000000000000e+01	1.900000000000000000e+01	1.600000000000000000e+01
4.700660820007324219e+02	1.500205993652343750e+00	5.300000000000000000e+01	6.297018527984619141e-01	1.000000000000000000e+00	2.700000000000000000e+01	2.000000000000000000e+01	1.600000000000000000e+01
4.803650171756744385e+02	1.500416994094848633e+00	5.400000000000000000e+01	7.456109523773193359e-01	1.000000000000000000e+00	2.700000000000000000e+01	2.100000000000000000e+01	1.600000000000000000e+01
4.885309431552886963e+02	1.499348878860473633e+00	5.500000000000000000e+01	5.833439826965332031e-01	1.000000000000000000e+00	2.700000000000000000e+01	2.200000000000000000e+01	1.600000000000000000e+01
4.993787941932678223e+02	1.499956846237182617e+00	5.600000000000000000e+01	5.352809429168701172e-01	1.000000000000000000e+00	2.700000000000000000e+01	2.300000000000000000e+01	1.600000000000000000e+01
5.074618780612945557e+02	1.498546123504638672e+00	5.700000000000000000e+01	5.848278999328613281e-01	1.000000000000000000e+00	2.700000000000000000e+01	2.400000000000000000e+01	1.600000000000000000e+01
5.151932861804962158e+02	1.500099897384643555e+00	5.800000000000000000e+01	6.602201461791992188e-01	0.000000000000000000e+00	2.700000000000000000e+01	2.500000000000000000e+01	1.600000000000000000e+01
5.260258162021636963e+02	1.499955892562866211e+00	5.900000000000000000e+01	5.173759460449218750e-01	1.000000000000000000e+00	2.700000000000000000e+01	2.600000000000000000e+01	1.600000000000000000e+01
