stim_onset, stim_duration, trial_type, rt, accuracy, epoch_length,epoch_trial, epoch_number
1.638793945312500000e-02	1.498971939086914062e+00	0.000000000000000000e+00	5.064880847930908203e-01	0.000000000000000000e+00	2.300000000000000000e+01	1.200000000000000000e+01	3.000000000000000000e+00
7.489032983779907227e+00	1.492193937301635742e+00	1.000000000000000000e+00	4.094510078430175781e-01	0.000000000000000000e+00	2.300000000000000000e+01	1.300000000000000000e+01	3.000000000000000000e+00
1.345951294898986816e+01	1.487711906433105469e+00	2.000000000000000000e+00	4.089882373809814453e-01	0.000000000000000000e+00	2.300000000000000000e+01	1.400000000000000000e+01	3.000000000000000000e+00
1.921314907073974609e+01	1.499945878982543945e+00	3.000000000000000000e+00	5.911328792572021484e-01	0.000000000000000000e+00	2.300000000000000000e+01	1.500000000000000000e+01	3.000000000000000000e+00
2.777038788795471191e+01	1.491651058197021484e+00	4.000000000000000000e+00	5.076777935028076172e-01	0.000000000000000000e+00	2.300000000000000000e+01	1.600000000000000000e+01	3.000000000000000000e+00
3.649242401123046875e+01	1.500377893447875977e+00	5.000000000000000000e+00	4.672031402587890625e-01	1.000000000000000000e+00	2.300000000000000000e+01	1.700000000000000000e+01	3.000000000000000000e+00
4.886723899841308594e+01	1.491461038589477539e+00	6.000000000000000000e+00	5.341989994049072266e-01	0.000000000000000000e+00	2.300000000000000000e+01	1.800000000000000000e+01	3.000000000000000000e+00
5.452182698249816895e+01	1.500808000564575195e+00	7.000000000000000000e+00	4.015250205993652344e-01	0.000000000000000000e+00	2.300000000000000000e+01	1.900000000000000000e+01	3.000000000000000000e+00
6.097542500495910645e+01	1.498507022857666016e+00	8.000000000000000000e+00	4.736840724945068359e-01	0.000000000000000000e+00	2.300000000000000000e+01	2.000000000000000000e+01	3.000000000000000000e+00
7.511941099166870117e+01	1.500726938247680664e+00	9.000000000000000000e+00	4.881398677825927734e-01	0.000000000000000000e+00	2.300000000000000000e+01	2.100000000000000000e+01	3.000000000000000000e+00
8.200744891166687012e+01	1.496444940567016602e+00	1.000000000000000000e+01	4.089150428771972656e-01	0.000000000000000000e+00	2.300000000000000000e+01	2.200000000000000000e+01	3.000000000000000000e+00
8.821117997169494629e+01	1.491626024246215820e+00	1.100000000000000000e+01	4.691679477691650391e-01	1.000000000000000000e+00	1.800000000000000000e+01	0.000000000000000000e+00	4.000000000000000000e+00
9.378163790702819824e+01	1.487864971160888672e+00	1.200000000000000000e+01	4.234261512756347656e-01	1.000000000000000000e+00	1.800000000000000000e+01	1.000000000000000000e+00	4.000000000000000000e+00
1.021042509078979492e+02	1.496994018554687500e+00	1.300000000000000000e+01	4.893250465393066406e-01	0.000000000000000000e+00	1.800000000000000000e+01	2.000000000000000000e+00	4.000000000000000000e+00
1.098256809711456299e+02	1.502144098281860352e+00	1.400000000000000000e+01	5.728569030761718750e-01	0.000000000000000000e+00	1.800000000000000000e+01	3.000000000000000000e+00	4.000000000000000000e+00
1.153633918762207031e+02	1.500977993011474609e+00	1.500000000000000000e+01	4.670240879058837891e-01	1.000000000000000000e+00	1.800000000000000000e+01	4.000000000000000000e+00	4.000000000000000000e+00
1.223854410648345947e+02	1.496299982070922852e+00	1.600000000000000000e+01	5.078971385955810547e-01	0.000000000000000000e+00	1.800000000000000000e+01	5.000000000000000000e+00	4.000000000000000000e+00
1.361274709701538086e+02	1.501379013061523438e+00	1.700000000000000000e+01	5.033810138702392578e-01	0.000000000000000000e+00	1.800000000000000000e+01	6.000000000000000000e+00	4.000000000000000000e+00
1.467016739845275879e+02	1.493109941482543945e+00	1.800000000000000000e+01	5.566239356994628906e-01	1.000000000000000000e+00	1.800000000000000000e+01	7.000000000000000000e+00	4.000000000000000000e+00
1.570752840042114258e+02	1.500580072402954102e+00	1.900000000000000000e+01	5.796978473663330078e-01	0.000000000000000000e+00	1.800000000000000000e+01	8.000000000000000000e+00	4.000000000000000000e+00
1.659328608512878418e+02	1.490314006805419922e+00	2.000000000000000000e+01	5.473229885101318359e-01	0.000000000000000000e+00	1.800000000000000000e+01	9.000000000000000000e+00	4.000000000000000000e+00
1.716594898700714111e+02	1.489006996154785156e+00	2.100000000000000000e+01	4.434549808502197266e-01	0.000000000000000000e+00	1.800000000000000000e+01	1.000000000000000000e+01	4.000000000000000000e+00
1.842848749160766602e+02	1.495847940444946289e+00	2.200000000000000000e+01	6.067209243774414062e-01	0.000000000000000000e+00	1.800000000000000000e+01	1.100000000000000000e+01	4.000000000000000000e+00
1.902889750003814697e+02	1.501008033752441406e+00	2.300000000000000000e+01	5.373759269714355469e-01	1.000000000000000000e+00	1.800000000000000000e+01	1.200000000000000000e+01	4.000000000000000000e+00
1.962096619606018066e+02	1.501950025558471680e+00	2.400000000000000000e+01	5.656640529632568359e-01	0.000000000000000000e+00	1.800000000000000000e+01	1.300000000000000000e+01	4.000000000000000000e+00
2.020638539791107178e+02	1.497396945953369141e+00	2.500000000000000000e+01	nan	nan	1.800000000000000000e+01	1.400000000000000000e+01	4.000000000000000000e+00
2.088184649944305420e+02	1.501462936401367188e+00	2.600000000000000000e+01	4.195699691772460938e-01	1.000000000000000000e+00	1.800000000000000000e+01	1.500000000000000000e+01	4.000000000000000000e+00
2.171415779590606689e+02	1.501008033752441406e+00	2.700000000000000000e+01	5.849530696868896484e-01	1.000000000000000000e+00	1.800000000000000000e+01	1.600000000000000000e+01	4.000000000000000000e+00
2.232451629638671875e+02	1.496062040328979492e+00	2.800000000000000000e+01	4.657130241394042969e-01	1.000000000000000000e+00	1.800000000000000000e+01	1.700000000000000000e+01	4.000000000000000000e+00
2.311001319885253906e+02	1.501539945602416992e+00	2.900000000000000000e+01	4.719841480255126953e-01	0.000000000000000000e+00	2.200000000000000000e+01	0.000000000000000000e+00	5.000000000000000000e+00
2.397394669055938721e+02	1.500230073928833008e+00	3.000000000000000000e+01	6.204679012298583984e-01	0.000000000000000000e+00	2.200000000000000000e+01	1.000000000000000000e+00	5.000000000000000000e+00
2.461108138561248779e+02	1.493797063827514648e+00	3.100000000000000000e+01	5.841910839080810547e-01	0.000000000000000000e+00	2.200000000000000000e+01	2.000000000000000000e+00	5.000000000000000000e+00
2.518987510204315186e+02	1.488669872283935547e+00	3.200000000000000000e+01	5.428960323333740234e-01	0.000000000000000000e+00	2.200000000000000000e+01	3.000000000000000000e+00	5.000000000000000000e+00
2.640527858734130859e+02	1.488809108734130859e+00	3.300000000000000000e+01	4.353981018066406250e-01	1.000000000000000000e+00	2.200000000000000000e+01	4.000000000000000000e+00	5.000000000000000000e+00
2.722455620765686035e+02	1.489260911941528320e+00	3.400000000000000000e+01	5.765340328216552734e-01	0.000000000000000000e+00	2.200000000000000000e+01	5.000000000000000000e+00	5.000000000000000000e+00
2.816185178756713867e+02	1.485091209411621094e+00	3.500000000000000000e+01	5.624349117279052734e-01	0.000000000000000000e+00	2.200000000000000000e+01	6.000000000000000000e+00	5.000000000000000000e+00
2.892578699588775635e+02	1.500412940979003906e+00	3.600000000000000000e+01	5.936141014099121094e-01	0.000000000000000000e+00	2.200000000000000000e+01	7.000000000000000000e+00	5.000000000000000000e+00
2.956117539405822754e+02	1.501817941665649414e+00	3.700000000000000000e+01	6.435990333557128906e-01	1.000000000000000000e+00	2.200000000000000000e+01	8.000000000000000000e+00	5.000000000000000000e+00
3.016993620395660400e+02	1.496834993362426758e+00	3.800000000000000000e+01	5.230469703674316406e-01	1.000000000000000000e+00	2.200000000000000000e+01	9.000000000000000000e+00	5.000000000000000000e+00
3.096380648612976074e+02	1.491241216659545898e+00	3.900000000000000000e+01	5.378310680389404297e-01	1.000000000000000000e+00	2.200000000000000000e+01	1.000000000000000000e+01	5.000000000000000000e+00
3.186110000610351562e+02	1.500082015991210938e+00	4.000000000000000000e+01	6.020228862762451172e-01	0.000000000000000000e+00	2.200000000000000000e+01	1.100000000000000000e+01	5.000000000000000000e+00
3.246107430458068848e+02	1.489358901977539062e+00	4.100000000000000000e+01	5.749220848083496094e-01	0.000000000000000000e+00	2.200000000000000000e+01	1.200000000000000000e+01	5.000000000000000000e+00
3.310529918670654297e+02	1.489594221115112305e+00	4.200000000000000000e+01	5.621991157531738281e-01	0.000000000000000000e+00	2.200000000000000000e+01	1.300000000000000000e+01	5.000000000000000000e+00
3.422946488857269287e+02	1.483361005783081055e+00	4.300000000000000000e+01	5.831198692321777344e-01	0.000000000000000000e+00	2.200000000000000000e+01	1.400000000000000000e+01	5.000000000000000000e+00
3.574212079048156738e+02	1.501230955123901367e+00	4.400000000000000000e+01	6.302011013031005859e-01	0.000000000000000000e+00	2.200000000000000000e+01	1.500000000000000000e+01	5.000000000000000000e+00
3.698634409904479980e+02	1.490496873855590820e+00	4.500000000000000000e+01	6.036810874938964844e-01	1.000000000000000000e+00	2.200000000000000000e+01	1.600000000000000000e+01	5.000000000000000000e+00
3.834059209823608398e+02	1.484124898910522461e+00	4.600000000000000000e+01	4.978609085083007812e-01	0.000000000000000000e+00	2.200000000000000000e+01	1.700000000000000000e+01	5.000000000000000000e+00
3.939961309432983398e+02	1.501491069793701172e+00	4.700000000000000000e+01	5.013370513916015625e-01	0.000000000000000000e+00	2.200000000000000000e+01	1.800000000000000000e+01	5.000000000000000000e+00
3.996333498954772949e+02	1.499659061431884766e+00	4.800000000000000000e+01	5.449020862579345703e-01	0.000000000000000000e+00	2.200000000000000000e+01	1.900000000000000000e+01	5.000000000000000000e+00
4.152775778770446777e+02	1.501978158950805664e+00	4.900000000000000000e+01	5.033459663391113281e-01	0.000000000000000000e+00	2.200000000000000000e+01	2.000000000000000000e+01	5.000000000000000000e+00
4.235169360637664795e+02	1.484265804290771484e+00	5.000000000000000000e+01	5.067379474639892578e-01	1.000000000000000000e+00	2.200000000000000000e+01	2.100000000000000000e+01	5.000000000000000000e+00
4.314890339374542236e+02	1.489253997802734375e+00	5.100000000000000000e+01	4.333670139312744141e-01	0.000000000000000000e+00	1.800000000000000000e+01	0.000000000000000000e+00	6.000000000000000000e+00
4.380100240707397461e+02	1.500552892684936523e+00	5.200000000000000000e+01	5.760521888732910156e-01	1.000000000000000000e+00	1.800000000000000000e+01	1.000000000000000000e+00	6.000000000000000000e+00
4.458934030532836914e+02	1.490572929382324219e+00	5.300000000000000000e+01	4.815380573272705078e-01	1.000000000000000000e+00	1.800000000000000000e+01	2.000000000000000000e+00	6.000000000000000000e+00
4.602577359676361084e+02	1.500019073486328125e+00	5.400000000000000000e+01	5.464870929718017578e-01	0.000000000000000000e+00	1.800000000000000000e+01	3.000000000000000000e+00	6.000000000000000000e+00
4.684477369785308838e+02	1.501836061477661133e+00	5.500000000000000000e+01	4.453358650207519531e-01	0.000000000000000000e+00	1.800000000000000000e+01	4.000000000000000000e+00	6.000000000000000000e+00
4.779711420536041260e+02	1.500574827194213867e+00	5.600000000000000000e+01	4.677228927612304688e-01	0.000000000000000000e+00	1.800000000000000000e+01	5.000000000000000000e+00	6.000000000000000000e+00
4.836082379817962646e+02	1.485033035278320312e+00	5.700000000000000000e+01	5.264649391174316406e-01	0.000000000000000000e+00	1.800000000000000000e+01	6.000000000000000000e+00	6.000000000000000000e+00
4.912141940593719482e+02	1.500669002532958984e+00	5.800000000000000000e+01	5.074639320373535156e-01	0.000000000000000000e+00	1.800000000000000000e+01	7.000000000000000000e+00	6.000000000000000000e+00
4.970010180473327637e+02	1.500766992568969727e+00	5.900000000000000000e+01	4.564812183380126953e-01	0.000000000000000000e+00	1.800000000000000000e+01	8.000000000000000000e+00	6.000000000000000000e+00
