reward_code,subj_id,condition,trial,epoch_trial,epoch_number,button_press,LR_solution,LR,reward,p_accuracy,rt,trial_end,iti_length,iti_end,stim_onset,session_n,run_n
3.0,860.0,7510.0,0.0,0.0,23.0,0.4963090419769286,76.0,76.0,0.0,1.0,0.4803850650787354,1.5094790458679197,4.916708308351533,6.4261873542194525,0.015912055969238278,5,5
3.0,860.0,7510.0,1.0,1.0,23.0,6.7954039573669425,76.0,82.0,0.0,0.0,0.35379099845886236,7.941524982452392,5.762792079528222,13.704317061980614,6.441605091094971,5,5
3.0,860.0,7510.0,2.0,2.0,23.0,14.156282901763916,76.0,82.0,0.0,0.0,0.43187499046325684,15.224204063415526,4.873750157675777,20.097954221091303,13.724404096603392,5,5
3.0,860.0,7510.0,3.0,3.0,23.0,20.66478204727173,82.0,76.0,0.0,0.0,0.5496790409088135,21.614118099212646,7.593776535838363,29.20789463505101,20.11509609222412,5,5
3.0,860.0,7510.0,4.0,4.0,23.0,29.721851110458374,82.0,82.0,3.0,1.0,0.4995369911193848,30.721633911132805,4.994346289392772,35.71598020052558,29.22231006622314,5,5
3.0,860.0,7510.0,5.0,5.0,23.0,36.21158909797669,76.0,76.0,3.0,1.0,0.4827439785003662,37.227724075317376,5.142971668145491,42.37069574346287,35.728842973709106,5,5
3.0,860.0,7510.0,6.0,6.0,23.0,42.96528697013856,82.0,82.0,3.0,1.0,0.5786077976226807,43.88647794723511,4.647027959997369,48.533505907232474,42.386672019958496,5,5
3.0,860.0,7510.0,7.0,7.0,23.0,49.19507408142089,76.0,76.0,0.0,1.0,0.6425230503082277,50.052716016769416,5.046934765326736,55.09965078209615,48.55254697799682,5,5
3.0,860.0,7510.0,8.0,8.0,23.0,55.73010206222534,76.0,82.0,0.0,0.0,0.6113700866699218,56.617610931396484,6.51470487036255,63.132315801759034,55.118719100952156,5,5
3.0,860.0,7510.0,9.0,9.0,23.0,63.72084593772888,76.0,76.0,2.0,1.0,0.5702340602874756,64.65105509757996,6.479749280770237,71.13080437835019,63.15060901641846,5,5
3.0,860.0,7510.0,10.0,10.0,23.0,71.84678292274475,82.0,82.0,0.0,1.0,0.6971850395202637,72.64870095252991,10.968890140240136,83.61759109277004,71.14959502220154,5,5
3.0,860.0,7510.0,11.0,11.0,23.0,84.19330191612244,82.0,82.0,2.0,1.0,0.5624248981475831,85.1314060688019,6.797268615282391,91.92867468408429,83.6308660507202,5,5
3.0,860.0,7510.0,12.0,12.0,23.0,92.57312393188478,76.0,76.0,3.0,1.0,0.6262991428375244,93.4469349384308,6.037975761854152,99.48491070028496,91.94682312011719,5,5
3.0,860.0,7510.0,13.0,13.0,23.0,99.99978709220888,82.0,82.0,3.0,1.0,0.4968178272247315,101.00261306762695,10.07896626868024,111.08157933630719,99.50296401977539,5,5
3.0,860.0,7510.0,14.0,14.0,23.0,111.64244294166565,82.0,76.0,0.0,0.0,0.5487639904022217,112.59302401542664,13.702638396211972,126.2956624116386,111.09367203712463,5,5
3.0,860.0,7510.0,15.0,15.0,23.0,126.88329792022705,76.0,76.0,1.0,1.0,0.5755298137664795,127.80867004394531,6.060526360333835,133.86919640427914,126.30775594711304,5,5
3.0,860.0,7510.0,16.0,16.0,23.0,134.42386198043823,76.0,82.0,0.0,0.0,0.5421459674835205,135.38064599037168,6.135497704550128,141.5161436949218,133.88170790672302,5,5
3.0,860.0,7510.0,17.0,17.0,23.0,142.01275897026062,82.0,76.0,0.0,0.0,0.4819319248199463,143.0298891067505,7.006100557096484,150.03598966384698,141.53082108497617,5,5
3.0,860.0,7510.0,18.0,18.0,23.0,150.73479795455933,82.0,82.0,1.0,1.0,0.6800501346588136,151.55485391616818,4.003132228970471,155.55798614513864,150.0547480583191,5,5
3.0,860.0,7510.0,19.0,0.0,24.0,156.3212869167328,76.0,,0.0,,,157.070209980011,7.610057448869451,164.68026742888043,155.57078599929807,5,5
3.0,860.0,7510.0,20.0,1.0,24.0,165.2279679775238,82.0,76.0,0.0,0.0,0.5331220626831055,166.19388389587402,5.470388175969488,171.6642720718435,164.69483995437622,5,5
3.0,860.0,7510.0,21.0,2.0,24.0,172.2738540172577,82.0,82.0,3.0,1.0,0.5980758666992188,173.17664790153503,4.078400691950506,177.25504859348553,171.6757740974426,5,5
3.0,860.0,7510.0,22.0,3.0,24.0,178.01774191856384,82.0,,0.0,,,178.76736092567444,5.658470447499704,184.42583137317413,177.26727390289307,5,5
3.0,860.0,7510.0,23.0,4.0,24.0,184.95681810379028,76.0,76.0,3.0,1.0,0.5157439708709716,185.94112896919248,7.130852948239703,193.07198191743217,184.44106507301328,5,5
3.0,860.0,7510.0,24.0,5.0,24.0,193.64941310882566,76.0,76.0,3.0,1.0,0.5590119361877441,194.59016799926758,4.602224744220734,199.1923927434883,193.09039092063904,5,5
3.0,860.0,7510.0,25.0,6.0,24.0,199.73622488975525,82.0,82.0,2.0,1.0,0.5299639701843261,200.7053871154785,6.080891338842925,206.7862784543214,199.20625495910645,5,5
3.0,860.0,7510.0,26.0,7.0,24.0,207.32995510101318,82.0,82.0,2.0,1.0,0.5256569385528564,208.30529689788816,5.414309574394099,213.71960647228227,206.8042929172516,5,5
3.0,860.0,7510.0,27.0,0.0,25.0,214.22385191917414,82.0,76.0,1.0,0.0,0.4867460727691649,215.2372100353241,10.50980034810411,225.7470103834282,213.7370998859405,5,5
3.0,860.0,7510.0,28.0,1.0,25.0,226.32969403266907,76.0,82.0,0.0,0.0,0.5685110092163085,227.26058197021487,7.4728715677193085,234.73345353793417,225.76116991043088,5,5
3.0,860.0,7510.0,29.0,2.0,25.0,235.2574028968811,82.0,76.0,0.0,0.0,0.5058240890502931,236.2507209777832,5.747473885950861,241.99819486373406,234.75157189369202,5,5
3.0,860.0,7510.0,30.0,3.0,25.0,242.53412294387815,76.0,76.0,3.0,1.0,0.5176200866699219,243.5167551040649,8.099039254494366,251.61579435855927,242.01649904251096,5,5
3.0,860.0,7510.0,31.0,4.0,25.0,252.1919848918915,82.0,82.0,0.0,1.0,0.5602400302886962,253.13186693191525,6.348813103982545,259.4806800358978,251.63171100616452,5,5
3.0,860.0,7510.0,32.0,5.0,25.0,260.00488901138306,76.0,82.0,3.0,0.0,0.507133960723877,260.99743294715876,5.848815700906563,266.84624864806534,259.49774599075323,5,5
3.0,860.0,7510.0,33.0,6.0,25.0,267.36639904975885,82.0,76.0,0.0,0.0,0.5035860538482666,268.3635020256042,5.719173129609613,274.0826751552138,266.86280608177185,5,5
3.0,860.0,7510.0,34.0,7.0,25.0,274.60034108161926,82.0,82.0,0.0,1.0,0.5046980381011962,275.59468603134155,4.9662419230894725,280.560927954431,274.0956389904023,5,5
3.0,860.0,7510.0,35.0,8.0,25.0,281.1000459194184,76.0,82.0,0.0,0.0,0.5219390392303466,282.0779321193695,6.716651711634432,288.79458383100393,280.57809996604925,5,5
3.0,860.0,7510.0,36.0,0.0,26.0,289.35194802284235,82.0,76.0,2.0,0.0,0.5416398048400879,290.30924701690674,7.491607659717442,297.80085467662417,288.8103039264679,5,5
3.0,860.0,7510.0,37.0,1.0,26.0,298.33057403564453,76.0,82.0,3.0,0.0,0.513293981552124,299.31802511215204,4.420123803878934,303.738148916031,297.81727099418634,5,5
3.0,860.0,7510.0,38.0,2.0,26.0,304.3715710639954,82.0,76.0,0.0,0.0,0.6139888763427735,305.2577679157257,4.0279412498225025,309.2857091655482,303.7575869560242,5,5
3.0,860.0,7510.0,39.0,3.0,26.0,309.7387869358063,76.0,82.0,0.0,0.0,0.43970704078674316,310.79959511756897,4.062804962656588,314.86240008022554,309.2990710735321,5,5
3.0,860.0,7510.0,40.0,4.0,26.0,315.4371979236603,82.0,82.0,1.0,1.0,0.5557420253753663,316.381630897522,10.673610796563375,327.05524169408534,314.881448984146,5,5
3.0,860.0,7510.0,41.0,5.0,26.0,327.62497305870056,76.0,82.0,0.0,0.0,0.5532560348510742,328.5719521045684,8.091276907931054,336.66322901249947,327.07171297073364,5,5
3.0,860.0,7510.0,42.0,6.0,26.0,337.27465891838074,76.0,76.0,2.0,1.0,0.5956120491027832,338.17846608161926,4.9781673696677995,343.15663345128706,336.6790421009064,5,5
3.0,860.0,7510.0,43.0,7.0,26.0,343.8985090255737,76.0,76.0,0.0,1.0,0.7295799255371092,344.66911911964417,4.450147912122084,349.11926703176624,343.16892290115356,5,5
3.0,860.0,7510.0,44.0,0.0,27.0,349.6752610206604,76.0,82.0,0.0,0.0,0.5397200584411621,350.63424205780024,4.517952949385784,355.15219500718604,349.13553404808044,5,5
3.0,860.0,7510.0,45.0,1.0,27.0,355.7231209278106,82.0,82.0,2.0,1.0,0.5563170909881592,356.6669828891755,6.348661098712827,363.0156439878883,355.166836977005,5,5
3.0,860.0,7510.0,46.0,2.0,27.0,363.53710389137274,76.0,76.0,4.0,1.0,0.5040490627288818,364.53300094604487,7.269404980462488,371.80240592650733,363.0330491065979,5,5
3.0,860.0,7510.0,47.0,3.0,27.0,372.37075304985046,82.0,82.0,3.0,1.0,0.5552380084991455,373.3154349327088,8.876084889433676,382.1915198221425,371.81551194190973,5,5
3.0,860.0,7510.0,48.0,4.0,27.0,382.81449794769287,82.0,82.0,2.0,1.0,0.6092500686645508,383.70534610748285,8.38513807148823,392.0904841789711,382.2052481174469,5,5
3.0,860.0,7510.0,49.0,5.0,27.0,392.66610097885126,76.0,76.0,4.0,1.0,0.5625531673431396,393.60381197929377,5.812647349505331,399.4164593287991,392.10354208946234,5,5
3.0,860.0,7510.0,50.0,6.0,27.0,399.8769690990448,82.0,82.0,3.0,1.0,0.4403290748596192,400.9365630149841,8.253950106676607,409.1905131216607,399.4366340637207,5,5
3.0,860.0,7510.0,51.0,7.0,27.0,409.7888569831848,82.0,76.0,0.0,0.0,0.5791130065917969,410.70930099487293,5.380127214987131,416.08942820986005,409.2097361087799,5,5
3.0,860.0,7510.0,52.0,8.0,27.0,416.62548303604126,76.0,76.0,4.0,1.0,0.5167708396911621,417.6090071201325,4.369896218412159,421.9789033385447,416.1086940765381,5,5
3.0,860.0,7510.0,53.0,9.0,27.0,422.55838990211487,82.0,82.0,3.0,1.0,0.5670511722564697,423.4917199611664,5.511122488053566,429.00284244921994,421.9913330078125,5,5
3.0,860.0,7510.0,54.0,10.0,27.0,429.5132911205292,82.0,82.0,0.0,1.0,0.4975409507751465,430.51524400711054,4.495930299926729,435.01117430703727,429.01574897766113,5,5
3.0,860.0,7510.0,55.0,0.0,28.0,435.5502209663391,82.0,76.0,0.0,0.0,0.5266010761260986,436.52294802665716,9.23281000747059,445.7557580341278,435.0236129760742,5,5
3.0,860.0,7510.0,56.0,1.0,28.0,446.2588210105896,82.0,82.0,3.0,1.0,0.4878737926483154,447.27084589004517,6.192597821147813,453.46344371119295,445.770977973938,5,5
3.0,860.0,7510.0,57.0,2.0,28.0,453.99560809135437,82.0,82.0,2.0,1.0,0.5162870883941652,454.979082107544,8.60580996377734,463.58489207132135,453.47932004928583,5,5
3.0,860.0,7510.0,58.0,3.0,28.0,464.00246596336376,82.0,82.0,3.0,1.0,0.40032887458801275,465.10249209404,5.495349613605028,470.597841707645,463.6021270751953,5,5
3.0,860.0,7510.0,59.0,4.0,28.0,471.1932730674744,76.0,76.0,2.0,1.0,0.5754070281982422,472.1179950237274,5.552110361367337,477.67010538509476,470.617861032486,5,5
